is_manipulated,manipulation_angle,online_feedback,endpoint_feedback,was_restarted,is_judged,label,too_slow,manipulation_type,rt,target_angle,reach_angle,diff_angle,target_dist,trial,id,exp_version,judgement_rt,judgement_decision_time,judgement_loc,judgement_width,judgement_score
1,50,1,1,0,0,PERTURBATION,0,ROTATION,1.20725703239441,-90,-100.77159231208,-10.7715923120801,80,1,msl000290,v1,0,0,0,0,0
1,50,1,1,0,1,PERTURBATION,0,ROTATION,0.957365989685059,-90,-139.340792720678,-49.3407927206778,80,2,msl000290,v1,0.291966438293457,6.55591940879822,-36.53206615448,26.6461677551271,74
1,45,1,1,0,0,PERTURBATION,0,ROTATION,0.799383878707886,-90,-113.307270322768,-23.307270322768,80,3,msl000290,v1,0,0,0,0,74
1,45,1,1,0,1,PERTURBATION,0,ROTATION,0.411631107330322,-90,-135.866878882828,-45.8668788828275,80,4,msl000290,v1,0.738885402679443,3.85093927383423,-21.1852621078491,65.3468040466308,109
1,0,1,1,0,0,PERTURBATION,0,ROTATION,0.984298944473267,-90,-105.70510187152,-15.7051018715199,80,5,msl000290,v1,0,0,0,0,109
1,0,1,1,0,1,PERTURBATION,0,ROTATION,0.28974986076355,-90,-68.4245496219526,21.5754503780475,80,6,msl000290,v1,0.230898141860962,5.23889327049255,23.6874584197997,10.6321113586427,109
1,60,1,1,0,0,PERTURBATION,0,ROTATION,0.503715991973877,-90,-102.826282819207,-12.8262828192069,80,7,msl000290,v1,0,0,0,0,109
1,60,1,1,0,1,PERTURBATION,0,ROTATION,0.0989210605621338,-90,-146.065315759243,-56.0653157592425,80,8,msl000290,v1,0.826274871826172,7.01031708717346,-45.5399728775026,17.3046348571779,192
1,-35,1,1,0,0,PERTURBATION,0,ROTATION,0.640496969223023,-90,-108.323643640239,-18.3236436402393,80,9,msl000290,v1,0,0,0,0,192
1,-35,1,1,0,1,PERTURBATION,0,ROTATION,0.562716007232666,-90,-32.4152835404691,57.584716459531,80,10,msl000290,v1,0.924772977828979,6.56487774848938,58.2177675247196,13.9683731079103,192
1,15,1,1,0,0,PERTURBATION,0,ROTATION,0.553252220153809,-90,-107.814262003761,-17.814262003761,80,11,msl000290,v1,0,0,0,0,192
1,15,1,1,0,1,PERTURBATION,0,ROTATION,0.557722091674805,-90,-106.881383266476,-16.8813832664758,80,12,msl000290,v1,0.631069898605347,5.12702798843384,-2.50219631195068,2.62508316040052,290
1,-55,1,1,0,0,PERTURBATION,0,ROTATION,0.576544046401978,-90,-100.555464856638,-10.555464856638,80,13,msl000290,v1,0,0,0,0,290
1,-55,1,1,0,1,PERTURBATION,0,ROTATION,0.072904109954834,-90,-36.4798949176093,53.5201050823907,80,14,msl000290,v1,0.771294832229614,6.69135189056397,59.0518329620365,12.6338684082033,378
1,20,1,1,0,0,PERTURBATION,0,ROTATION,0.754706859588623,-90,-104.072626442045,-14.0726264420453,80,15,msl000290,v1,0,0,0,0,378
1,20,1,1,0,1,PERTURBATION,0,ROTATION,0.527487993240356,-90,-115.682032576159,-25.682032576159,80,16,msl000290,v1,0.240125179290772,3.68813109397888,-5.50483188629151,1,378
1,-30,1,1,0,0,PERTURBATION,0,ROTATION,0.439104080200195,-90,-95.9329591289198,-5.93295912891979,80,17,msl000290,v1,0,0,0,0,378
1,-30,1,1,0,1,PERTURBATION,0,ROTATION,0.42994213104248,-90,-50.4513867841762,39.5486132158238,80,18,msl000290,v1,0.0680277347564697,4.80402779579163,38.3670101165772,17.6382610321046,378
1,-60,1,1,0,0,PERTURBATION,0,ROTATION,0.506603956222534,-90,-101.942775788767,-11.9427757887668,80,19,msl000290,v1,0,0,0,0,378
1,-60,1,1,0,1,PERTURBATION,0,ROTATION,0.531512975692749,-90,-31.3776043627569,58.6223956372431,80,20,msl000290,v1,0.400178909301758,7.28023409843445,66.5584218978887,30.9833080291749,448
1,35,1,1,0,0,PERTURBATION,0,ROTATION,1.02669310569763,-90,-99.5739157888461,-9.57391578884607,80,21,msl000290,v1,0,0,0,0,448
1,35,1,1,0,1,PERTURBATION,0,ROTATION,0.468686103820801,-90,-124.423622187612,-34.4236221876116,80,22,msl000290,v1,0.249768972396851,3.30577683448792,-25.3555892944335,24.3107845306398,524
1,-25,1,1,0,0,PERTURBATION,0,ROTATION,0.49583911895752,-90,-101.343077800357,-11.3430778003572,80,23,msl000290,v1,0,0,0,0,524
1,-25,1,1,0,1,PERTURBATION,0,ROTATION,0.31368899345398,-90,-54.1458269265492,35.8541730734508,80,24,msl000290,v1,0.335293292999268,4.03127217292786,29.8595426559447,20.9745227813722,524
1,-45,1,1,0,0,PERTURBATION,0,ROTATION,0.4114830493927,-90,-100.228839859731,-10.2288398597313,80,25,msl000290,v1,0,0,0,0,524
1,-45,1,1,0,1,PERTURBATION,0,ROTATION,0.271732091903687,-90,-31.1970816696108,58.8029183303892,80,26,msl000290,v1,0.0260789394378662,5.29805612564087,56.3828235626224,26.3125415802003,524
1,55,1,1,0,0,PERTURBATION,0,ROTATION,0.396083116531372,-90,-98.3167325429311,-8.31673254293112,80,27,msl000290,v1,0,0,0,0,524
1,55,1,1,0,1,PERTURBATION,0,ROTATION,0.699079990386963,-90,-131.414588130222,-41.4145881302223,80,28,msl000290,v1,0.371316194534302,4.35532808303833,-36.53206615448,31.3169342041016,593
1,-20,1,1,0,0,PERTURBATION,0,ROTATION,0.518770933151245,-90,-100.039065091165,-10.0390650911649,80,29,msl000290,v1,0,0,0,0,593
1,-20,1,1,0,1,PERTURBATION,0,ROTATION,0.527868986129761,-90,-54.412949608754,35.587050391246,80,30,msl000290,v1,0.419510841369629,5.01146292686462,31.0272342681884,26.3125415802003,593
1,-15,1,1,0,0,PERTURBATION,0,ROTATION,0.699275016784668,-90,-100.368602252062,-10.3686022520619,80,31,msl000290,v1,0,0,0,0,593
1,-15,1,1,0,1,PERTURBATION,0,ROTATION,0.789009809494019,-90,-58.8149190064816,31.1850809935184,80,32,msl000290,v1,0.529647827148438,3.27369093894959,24.1878976821899,23.3099060058595,593
1,30,1,1,0,0,PERTURBATION,0,ROTATION,0.534917116165161,-90,-94.6371079731607,-4.6371079731607,80,33,msl000290,v1,0,0,0,0,593
1,30,1,1,0,1,PERTURBATION,0,ROTATION,1.12563896179199,-90,-124.967282024015,-34.9672820240153,80,34,msl000290,v1,0.558318614959717,3.91034555435181,-26.5232809066772,35.3204483032227,658
1,-50,1,1,0,0,PERTURBATION,0,ROTATION,0.649776935577393,-90,-98.4340809576088,-8.43408095760883,80,35,msl000290,v1,0,0,0,0,658
1,-50,1,1,0,1,PERTURBATION,0,ROTATION,0.392153978347778,-90,-31.7379370547673,58.2620629452327,80,36,msl000290,v1,0.0461633205413818,4.43010520935059,52.8797487258914,37.3222053527833,721
1,25,1,1,0,0,PERTURBATION,0,ROTATION,0.77865195274353,-90,-103.484370450281,-13.4843704502809,80,37,msl000290,v1,0,0,0,0,721
1,25,1,1,0,1,PERTURBATION,0,ROTATION,0.397531032562256,-90,-123.435651362055,-33.4356513620554,80,38,msl000290,v1,0.563597917556763,4.55550408363342,-15.5136171340942,27.9806724548341,794
1,-40,1,1,0,0,PERTURBATION,0,ROTATION,0.919207096099854,-90,-100.839124627922,-10.839124627922,80,39,msl000290,v1,0,0,0,0,794
1,-40,1,1,0,1,PERTURBATION,0,ROTATION,0.495881080627441,-90,-40.9808170043574,49.0191829956426,80,40,msl000290,v1,0.542870759963989,5.2548086643219,54.881505775452,29.9824295043946,865
1,40,1,1,0,0,PERTURBATION,0,ROTATION,0.448222875595093,-90,-102.683801720375,-12.6838017203745,80,41,msl000290,v1,0,0,0,0,865
1,40,1,1,0,1,PERTURBATION,0,ROTATION,0.55904483795166,-90,-135.719829680016,-45.7198296800155,80,42,msl000290,v1,0.33216142654419,19.2282373905182,-28.6918510437011,27.3134201049806,938
1,-45,1,1,0,0,PERTURBATION,0,ROTATION,0.544095993041992,-90,-102.05667594105,-12.0566759410502,80,43,msl000290,v1,0,0,0,0,938
1,-45,1,1,0,1,PERTURBATION,0,ROTATION,0.384132862091064,-90,-31.1195035841358,58.8804964158642,80,44,msl000290,v1,0.261069536209106,5.71709752082825,62.2212816238408,27.6470462799073,938
1,25,1,1,0,0,PERTURBATION,0,ROTATION,0.476717948913574,-90,-96.8426986703786,-6.8426986703786,80,45,msl000290,v1,0,0,0,0,938
1,25,1,1,0,1,PERTURBATION,0,ROTATION,0.455950021743774,-90,-127.760575906665,-37.7605759066653,80,46,msl000290,v1,0.426370143890381,4.1463360786438,-22.6865798950195,32.9850650787354,1006
1,-60,1,1,0,0,PERTURBATION,0,ROTATION,0.482892990112305,-90,-103.73510066138,-13.7351006613805,80,47,msl000290,v1,0,0,0,0,1006
1,-60,1,1,0,1,PERTURBATION,0,ROTATION,0.38971209526062,-90,-16.6922465167328,73.3077534832673,80,48,msl000290,v1,0.856027603149414,6.91217064857483,73.8981977462775,30.9833080291749,1076
1,30,1,1,0,0,PERTURBATION,0,ROTATION,0.411669015884399,-90,-99.7829937127623,-9.78299371276233,80,49,msl000290,v1,0,0,0,0,1076
1,30,1,1,0,1,PERTURBATION,0,ROTATION,0.379684925079346,-90,-122.991777965947,-32.9917779659465,80,50,msl000290,v1,0.285706281661987,3.01376748085022,-16.3476825714111,32.9850650787354,1144
1,35,1,1,0,0,PERTURBATION,0,ROTATION,0.377597093582153,-90,-101.423334815915,-11.4233348159154,80,51,msl000290,v1,0,0,0,0,1144
1,35,1,1,0,1,PERTURBATION,0,ROTATION,0.356791973114014,-90,-131.216081229929,-41.2160812299291,80,52,msl000290,v1,0.135559320449829,3.44757413864136,-29.0254772186279,23.3099060058595,1221
1,-40,1,1,0,0,PERTURBATION,0,ROTATION,0.592849969863892,-90,-101.0892478139,-11.0892478138997,80,53,msl000290,v1,0,0,0,0,1221
1,-40,1,1,0,1,PERTURBATION,0,ROTATION,0.413532018661499,-90,-27.9026588824325,62.0973411175675,80,54,msl000290,v1,0.269683122634888,4.62963509559631,55.0483188629153,26.6461677551271,1221
1,-25,1,1,0,0,PERTURBATION,0,ROTATION,0.680529117584229,-90,-105.488693566937,-15.4886935669367,80,55,msl000290,v1,0,0,0,0,1221
1,-25,1,1,0,1,PERTURBATION,0,ROTATION,0.419209003448486,-90,-42.3932514142003,47.6067485857997,80,56,msl000290,v1,0.127127885818481,4.25511479377747,40.2019540786744,33.6523174285889,1221
1,20,1,1,0,0,PERTURBATION,0,ROTATION,0.612228870391846,-90,-108.046625095591,-18.0466250955908,80,57,msl000290,v1,0,0,0,0,1221
1,20,1,1,0,1,PERTURBATION,0,ROTATION,0.428898096084595,-90,-109.62036803374,-19.6203680337398,80,58,msl000290,v1,0.353710651397705,4.03363871574402,-3.00263557434082,14.6356254577638,1307
1,15,1,1,0,0,PERTURBATION,0,ROTATION,0.719456195831299,-90,-104.206856115741,-14.206856115741,80,59,msl000290,v1,0,0,0,0,1307
1,15,1,1,0,1,PERTURBATION,0,ROTATION,0.599640846252441,-90,-100.252497237497,-10.2524972374973,80,60,msl000290,v1,0.840938329696655,4.04896140098572,0,7.62947578430189,1307
1,-55,1,1,0,0,PERTURBATION,0,ROTATION,0.694764852523804,-90,-104.108465475903,-14.1084654759031,80,61,msl000290,v1,0,0,0,0,1307
1,-55,1,1,0,1,PERTURBATION,0,ROTATION,0.27036190032959,-90,-13.1994375281635,76.8005624718365,80,62,msl000290,v1,0.125623226165772,4.06971716880798,0,100,1307
1,-50,1,1,0,0,PERTURBATION,0,ROTATION,0.665405988693237,-90,-102.719820334772,-12.7198203347716,80,63,msl000290,v1,0,0,0,0,1307
1,-50,1,1,0,1,PERTURBATION,0,ROTATION,0.356493949890137,-90,-22.6863358891867,67.3136641108133,80,64,msl000290,v1,0.361004829406738,5.05701684951782,59.2186460494999,27.6470462799073,1307
1,50,1,1,0,0,PERTURBATION,0,ROTATION,0.500578880310059,-90,-95.4059819715875,-5.40598197158745,80,65,msl000290,v1,0,0,0,0,1307
1,50,1,1,0,1,PERTURBATION,0,ROTATION,0.373755931854248,-90,-139.987603936864,-49.9876039368642,80,66,msl000290,v1,0.220104455947876,3.94804358482361,-43.7050289154054,17.3046348571779,1390
1,-30,1,1,0,0,PERTURBATION,0,ROTATION,1.07754302024841,-90,-102.252826535527,-12.2528265355269,80,67,msl000290,v1,0,0,0,0,1390
1,-30,1,1,0,1,PERTURBATION,0,ROTATION,0.627537965774536,-90,-57.821130224,32.178869776,80,68,msl000290,v1,0.335840225219727,5.1998291015625,0,99.7103000640875,1391
1,-15,1,1,0,0,PERTURBATION,0,ROTATION,1.47739005088806,-90,-97.277386478645,-7.27738647864497,80,69,msl000290,v1,0,0,0,0,1391
1,-15,1,1,0,1,PERTURBATION,0,ROTATION,0.332103967666626,-90,-63.9702057567637,26.0297942432363,80,70,msl000290,v1,0.308138608932495,3.77210855484009,21.1852621078491,21.6417751312257,1391
1,40,1,1,0,0,PERTURBATION,0,ROTATION,0.461872816085815,-90,-100.7633178325,-10.7633178325004,80,71,msl000290,v1,0,0,0,0,1391
1,40,1,1,0,1,PERTURBATION,0,ROTATION,0.470016956329346,-90,-135.120470323841,-45.1204703238408,80,72,msl000290,v1,0.273505926132202,3.65747785568237,-28.5250379562377,22.3090274810792,1469
1,60,1,1,0,0,PERTURBATION,0,ROTATION,0.459326028823853,-90,-104.04072886265,-14.0407288626496,80,73,msl000290,v1,0,0,0,0,1469
1,60,1,1,0,1,PERTURBATION,0,ROTATION,0.334026098251343,-90,-147.510018907614,-57.5100189076138,80,74,msl000290,v1,0.304219961166382,4.28816294670105,-44.8727205276491,18.3055133819581,1551
1,-35,1,1,0,0,PERTURBATION,0,ROTATION,0.441513776779175,-90,-110.963598572253,-20.9635985722527,80,75,msl000290,v1,0,0,0,0,1551
1,-35,1,1,0,1,PERTURBATION,0,ROTATION,0.693603038787842,-90,-31.43746110936,58.56253889064,80,76,msl000290,v1,0.310114622116089,4.42213654518127,51.3784309387209,18.6391395568849,1551
1,45,1,1,0,0,PERTURBATION,0,ROTATION,0.390272855758667,-90,-105.745431437483,-15.7454314374829,80,77,msl000290,v1,0,0,0,0,1551
1,45,1,1,0,1,PERTURBATION,0,ROTATION,0.523334980010986,-90,-128.508017156886,-38.5080171568861,80,78,msl000290,v1,0.0161833763122559,3.08007025718689,-29.525916481018,21.6417751312257,1630
1,0,1,1,0,0,PERTURBATION,0,ROTATION,0.470458984375,-90,-104.456231615353,-14.4562316153531,80,79,msl000290,v1,0,0,0,0,1630
1,0,1,1,0,1,PERTURBATION,0,ROTATION,0.495054960250855,-90,-87.0527418461338,2.94725815386624,80,80,msl000290,v1,0.242364406585693,3.25831151008606,12.34416847229,17.9718872070314,1713
1,55,1,1,0,0,PERTURBATION,0,ROTATION,0.477813005447388,-90,-103.776100754499,-13.7761007544992,80,81,msl000290,v1,0,0,0,0,1713
1,55,1,1,0,1,PERTURBATION,0,ROTATION,0.391206979751587,-90,-143.033566187937,-53.0335661879372,80,82,msl000290,v1,0.76738429069519,3.72731328010559,-31.6944866180419,21.9754013061525,1792
1,-20,1,1,0,0,PERTURBATION,0,ROTATION,0.512408018112183,-90,-107.451637960362,-17.4516379603619,80,83,msl000290,v1,0,0,0,0,1792
1,-20,1,1,0,1,PERTURBATION,0,ROTATION,0.485872983932495,-90,-52.8257676789601,37.1742323210399,80,84,msl000290,v1,0.314992189407349,3.84300327301025,34.1966829299926,24.3107845306398,1792
1,20,1,1,0,0,PERTURBATION,0,ROTATION,0.48737096786499,-90,-107.688878529785,-17.6888785297853,80,85,msl000290,v1,0,0,0,0,1792
1,20,1,1,0,1,PERTURBATION,0,ROTATION,0.471836090087891,-90,-107.563389605358,-17.5633896053577,80,86,msl000290,v1,0.315822601318359,2.54788160324097,-1.33450469970703,16.6373825073244,1876
1,0,1,1,0,0,PERTURBATION,0,ROTATION,0.490979194641113,-90,-107.039700879396,-17.0397008793958,80,87,msl000290,v1,0,0,0,0,1876
1,0,1,1,0,1,PERTURBATION,0,ROTATION,0.382745027542114,-90,-87.8991411737833,2.10085882621674,80,88,msl000290,v1,0.27141261100769,2.66338849067688,18.6830657958984,22.9762798309327,1954
1,-15,1,1,0,0,PERTURBATION,0,ROTATION,0.39600682258606,-90,-103.041038269743,-13.0410382697426,80,89,msl000290,v1,0,0,0,0,1954
1,-15,1,1,0,1,PERTURBATION,0,ROTATION,0.467220067977905,-90,-67.1971560643795,22.8028439356205,80,90,msl000290,v1,0.579860210418701,3.88382720947266,29.0254772186279,20.3072704315187,2034
1,-50,1,1,0,0,PERTURBATION,0,ROTATION,0.400249004364014,-90,-103.750382531408,-13.7503825314079,80,91,msl000290,v1,0,0,0,0,2034
1,-50,1,1,0,1,PERTURBATION,0,ROTATION,0.45508885383606,-90,-36.2542588236317,53.7457411763683,80,92,msl000290,v1,0.254415988922119,5.2223801612854,65.2239171981816,18.9727657318117,2116
1,40,1,1,0,0,PERTURBATION,0,ROTATION,0.455265045166016,-90,-106.867775917691,-16.8677759176911,80,93,msl000290,v1,0,0,0,0,2116
1,40,1,1,0,1,PERTURBATION,0,ROTATION,0.420542001724243,-90,-127.936136784511,-37.9361367845113,80,94,msl000290,v1,0.247057914733887,3.28692388534546,-15.0131778717041,27.9806724548341,2189
1,-60,1,1,0,0,PERTURBATION,0,ROTATION,0.370049953460693,-90,-107.331760756496,-17.3317607564956,80,95,msl000290,v1,0,0,0,0,2189
1,-60,1,1,0,1,PERTURBATION,0,ROTATION,0.450494050979614,-90,-21.6825280077061,68.3174719922939,80,96,msl000290,v1,0.0576040744781494,5.44165086746216,69.5610574722296,21.9754013061525,2268
1,35,1,1,0,0,PERTURBATION,0,ROTATION,0.390592098236084,-90,-103.662913026543,-13.6629130265425,80,97,msl000290,v1,0,0,0,0,2268
1,35,1,1,0,1,PERTURBATION,0,ROTATION,0.322506904602051,-90,-121.396137903582,-31.3961379035817,80,98,msl000290,v1,0.637736082077026,3.77365803718567,-19.850757408142,27.6470462799073,2341
1,-25,1,1,0,0,PERTURBATION,0,ROTATION,0.504494905471802,-90,-105.843753488682,-15.8437534886821,80,99,msl000290,v1,0,0,0,0,2341
1,-25,1,1,0,1,PERTURBATION,0,ROTATION,0.788764953613281,-90,-42.9667157092264,47.0332842907736,80,100,msl000290,v1,0.193323850631714,4.36935687065125,39.0342624664307,26.9797939300538,2341
1,-35,1,1,0,0,PERTURBATION,0,ROTATION,0.423069000244141,-90,-107.336335307407,-17.3363353074074,80,101,msl000290,v1,0,0,0,0,2341
1,-35,1,1,0,1,PERTURBATION,0,ROTATION,0.473621129989624,-90,-34.4061554283546,55.5938445716454,80,102,msl000290,v1,0.161218643188477,4.42524480819702,53.0465618133548,18.6391395568849,2341
1,50,1,1,0,0,PERTURBATION,0,ROTATION,0.729971885681152,-90,-102.010623178472,-12.010623178472,80,103,msl000290,v1,0,0,0,0,2341
1,50,1,1,0,1,PERTURBATION,0,ROTATION,0.362393856048584,-90,-136.597246477921,-46.5972464779212,80,104,msl000290,v1,0.315741539001465,4.99567365646362,-39.5347017288208,26.3125415802003,2415
1,60,1,1,0,0,PERTURBATION,0,ROTATION,0.449136018753052,-90,-111.872370063402,-21.872370063402,80,105,msl000290,v1,0,0,0,0,2415
1,60,1,1,0,1,PERTURBATION,0,ROTATION,0.379064083099365,-90,-132.897843804527,-42.8978438045268,80,106,msl000290,v1,0.30887508392334,4.72491812705994,-36.53206615448,25.9789154052735,2415
1,-20,1,1,0,0,PERTURBATION,0,ROTATION,0.496299028396606,-90,-111.199367644603,-21.1993676446027,80,107,msl000290,v1,0,0,0,0,2415
1,-20,1,1,0,1,PERTURBATION,0,ROTATION,0.320136070251465,-90,-73.2119693996138,16.7880306003862,80,108,msl000290,v1,0.266780853271484,3.49082088470459,36.1984399795532,26.9797939300538,2489
1,30,1,1,0,0,PERTURBATION,0,ROTATION,0.427649021148682,-90,-103.765533011877,-13.7655330118767,80,109,msl000290,v1,0,0,0,0,2489
1,30,1,1,0,1,PERTURBATION,0,ROTATION,0.305812120437622,-90,-121.891675573019,-31.8916755730188,80,110,msl000290,v1,0.54699444770813,3.16294240951538,-17.8490003585815,27.9806724548341,2562
1,-30,1,1,0,0,PERTURBATION,0,ROTATION,0.577301979064941,-90,-101.52904415051,-11.5290441505104,80,111,msl000290,v1,0,0,0,0,2562
1,-30,1,1,0,1,PERTURBATION,0,ROTATION,0.360026836395264,-90,-49.7680680854781,40.2319319145219,80,112,msl000290,v1,0.339041471481323,3.79505753517151,40.8692064285279,27.3134201049806,2635
1,-45,1,1,0,0,PERTURBATION,0,ROTATION,0.373959064483643,-90,-108.871746707157,-18.8717467071566,80,113,msl000290,v1,0,0,0,0,2635
1,-45,1,1,0,1,PERTURBATION,0,ROTATION,0.479461908340454,-90,-29.0223696033668,60.9776303966332,80,114,msl000290,v1,0.204328536987305,5.16433238983154,67.7261135101324,20.9745227813722,2635
1,25,1,1,0,0,PERTURBATION,0,ROTATION,0.338813066482544,-90,-102.668190897325,-12.6681908973255,80,115,msl000290,v1,0,0,0,0,2635
1,25,1,1,0,1,PERTURBATION,0,ROTATION,0.403162002563477,-90,-116.156218582133,-26.1562185821326,80,116,msl000290,v1,0.338956356048584,2.41893744468689,-12.0105422973633,22.3090274810792,2713
1,-40,1,1,0,0,PERTURBATION,0,ROTATION,0.641340017318726,-90,-104.580110649436,-14.5801106494359,80,117,msl000290,v1,0,0,0,0,2713
1,-40,1,1,0,1,PERTURBATION,0,ROTATION,0.405543088912964,-90,-41.7455256115498,48.2544743884503,80,118,msl000290,v1,0.0619862079620361,4.10190510749817,53.0465618133548,23.3099060058595,2790
1,55,1,1,0,0,PERTURBATION,0,ROTATION,0.29007887840271,-90,-96.6917926577206,-6.69179265772061,80,119,msl000290,v1,0,0,0,0,2790
1,55,1,1,0,1,PERTURBATION,0,ROTATION,0.397610187530518,-90,-138.304619782709,-48.3046197827087,80,120,msl000290,v1,0.710997343063355,3.77497339248657,-35.3643745422363,27.6470462799073,2863
1,45,1,1,0,0,PERTURBATION,0,ROTATION,0.406322002410889,-90,-101.124907398917,-11.1249073989168,80,121,msl000290,v1,0,0,0,0,2863
1,45,1,1,0,1,PERTURBATION,0,ROTATION,0.291120052337647,-90,-135.025371139119,-45.0253711391188,80,122,msl000290,v1,0.288435935974121,3.26439785957336,-28.3582248687743,19.9736442565919,2944
1,-55,1,1,0,0,PERTURBATION,0,ROTATION,0.378341197967529,-90,-101.303308385173,-11.3033083851734,80,123,msl000290,v1,0,0,0,0,2944
1,-55,1,1,0,1,PERTURBATION,0,ROTATION,0.743254899978638,-90,-40.491029628362,49.508970371638,80,124,msl000290,v1,0.500615358352661,4.93259453773499,63.8894124984746,27.3134201049806,3017
1,15,1,1,0,0,PERTURBATION,0,ROTATION,0.437985181808472,-90,-104.102438246898,-14.1024382468976,80,125,msl000290,v1,0,0,0,0,3017
1,15,1,1,0,1,PERTURBATION,0,ROTATION,0.630719900131226,-90,-110.416764715286,-20.416764715286,80,126,msl000290,v1,0.538711071014404,4.09073305130005,0,7.29584960937513,3017
1,15,1,1,0,0,PERTURBATION,0,ROTATION,0.694069862365723,-90,-110.195302678828,-20.1953026788283,80,127,msl000290,v1,0,0,0,0,3017
1,15,1,1,0,1,PERTURBATION,0,ROTATION,0.416472911834717,-90,-107.697479846353,-17.6974798463533,80,128,msl000290,v1,0.536654710769653,1.73657155036926,0,20.3072704315187,3097
1,-20,1,1,0,0,PERTURBATION,0,ROTATION,0.43965482711792,-90,-101.340050417967,-11.3400504179674,80,129,msl000290,v1,0,0,0,0,3097
1,-20,1,1,0,1,PERTURBATION,0,ROTATION,0.473669052124023,-90,-110.113834919421,-20.113834919421,80,130,msl000290,v1,0.254905462265015,4.04692959785461,36.0316268920898,24.6444107055665,3097
1,0,1,1,0,0,PERTURBATION,0,ROTATION,0.950908184051514,-90,-102.528325175737,-12.5283251757368,80,131,msl000290,v1,0,0,0,0,3097
1,0,1,1,0,1,PERTURBATION,0,ROTATION,0.485591888427734,-90,-76.2171886290566,13.7828113709434,80,132,msl000290,v1,0.283140420913696,2.82711434364319,13.5118600845337,22.9762798309327,3097
1,-55,1,1,0,0,PERTURBATION,0,ROTATION,0.509301900863648,-90,-92.9982460330408,-2.99824603304081,80,133,msl000290,v1,0,0,0,0,3097
1,-55,1,1,0,1,PERTURBATION,0,ROTATION,0.47199010848999,-90,-36.0912892320638,53.9087107679362,80,134,msl000290,v1,0.262792587280273,4.2307505607605,54.7146926879886,24.6444107055665,3173
1,-45,1,1,0,0,PERTURBATION,0,ROTATION,0.554342031478882,-90,-95.9576069059812,-5.95760690598121,80,135,msl000290,v1,0,0,0,0,3173
1,-45,1,1,0,1,PERTURBATION,0,ROTATION,0.526083946228027,-90,-60.1539978767704,29.8460021232296,80,136,msl000290,v1,0.244566917419434,4.10055685043335,45.5399728775026,18.9727657318117,3173
1,50,1,1,0,0,PERTURBATION,0,ROTATION,0.610806941986084,-90,-89.8282187406504,0.171781259349658,80,137,msl000290,v1,0,0,0,0,3173
1,50,1,1,0,1,PERTURBATION,0,ROTATION,0.526432037353516,-90,-143.160179442381,-53.1601794423808,80,138,msl000290,v1,0.296041250228882,5.35208439826965,-60.0527114868168,19.9736442565919,3254
1,40,1,1,0,0,PERTURBATION,0,ROTATION,0.43112587928772,-90,-105.732917374181,-15.7329173741805,80,139,msl000290,v1,0,0,0,0,3254
1,40,1,1,0,1,PERTURBATION,0,ROTATION,0.342237949371338,-90,-114.21073259709,-24.2107325970899,80,140,msl000290,v1,0.597220897674561,3.64522194862366,-24.68833694458,31.3169342041016,3254
1,-15,1,1,0,0,PERTURBATION,0,ROTATION,0.380967855453491,-90,-103.901516300542,-13.9015163005422,80,141,msl000290,v1,0,0,0,0,3254
1,-15,1,1,0,1,PERTURBATION,0,ROTATION,0.516066074371338,-90,-57.8251226568306,32.1748773431694,80,142,msl000290,v1,1.82483816146851,5.04089117050171,0,85.6980007171634,3269
1,20,1,1,0,0,PERTURBATION,0,ROTATION,0.417470932006836,-90,-104.865087253491,-14.8650872534911,80,143,msl000290,v1,0,0,0,0,3269
1,20,1,1,0,1,PERTURBATION,0,ROTATION,0.857241868972778,-90,-105.834451123383,-15.8344511233833,80,144,msl000290,v1,0.226022005081177,3.10596585273743,-4.33714027404785,21.9754013061525,3348
1,-25,1,1,0,0,PERTURBATION,0,ROTATION,0.535423040390015,-90,-101.185443133811,-11.1854431338112,80,145,msl000290,v1,0,0,0,0,3348
1,-25,1,1,0,1,PERTURBATION,0,ROTATION,0.989622116088867,-90,-60.3727969425654,29.6272030574346,80,146,msl000290,v1,0.133883237838745,2.79786920547485,24.8551500320434,21.9754013061525,3427
1,-40,1,1,0,0,PERTURBATION,0,ROTATION,0.395849943161011,-90,-105.050793326268,-15.0507933262675,80,147,msl000290,v1,0,0,0,0,3427
1,-40,1,1,0,1,PERTURBATION,0,ROTATION,0.459676027297974,-90,-42.4823306316892,47.5176693683108,80,148,msl000290,v1,0.281014919281006,4.88105010986328,61.0535900115971,21.308148956299,3506
1,25,1,1,0,0,PERTURBATION,0,ROTATION,0.577624082565308,-90,-105.128170451405,-15.1281704514047,80,149,msl000290,v1,0,0,0,0,3506
1,25,1,1,0,1,PERTURBATION,0,ROTATION,0.424077987670898,-90,-105.742927713942,-15.7429277139419,80,150,msl000290,v1,0.32343316078186,2.18746018409729,-10.3424114227295,31.3169342041016,3575
1,55,1,1,0,0,PERTURBATION,0,ROTATION,0.348033905029297,-90,-108.674275044592,-18.6742750445915,80,151,msl000290,v1,0,0,0,0,3575
1,55,1,1,0,1,PERTURBATION,0,ROTATION,0.342209100723267,-90,-109.860857252338,-19.8608572523377,80,152,msl000290,v1,0.23658013343811,2.74853825569153,-25.1887762069702,26.3125415802003,3575
1,-60,1,1,0,0,PERTURBATION,0,ROTATION,0.366028070449829,-90,-108.257624684031,-18.2576246840305,80,153,msl000290,v1,0,0,0,0,3575
1,-60,1,1,0,1,PERTURBATION,0,ROTATION,0.557565927505493,-90,-32.3923763702843,57.6076236297158,80,154,msl000290,v1,1.03491497039795,6.05896401405335,66.7252349853521,22.642653656006,3653
1,-35,1,1,0,0,PERTURBATION,0,ROTATION,0.483253002166748,-90,-101.602454912627,-11.6024549126269,80,155,msl000290,v1,0,0,0,0,3653
1,-35,1,1,0,1,PERTURBATION,0,ROTATION,0.402498006820679,-90,-54.3367428920464,35.6632571079536,80,156,msl000290,v1,0.263298273086548,3.1033341884613,29.525916481018,25.6452892303468,3728
1,35,1,1,0,0,PERTURBATION,0,ROTATION,0.674355983734131,-90,-104.304284653748,-14.3042846537484,80,157,msl000290,v1,0,0,0,0,3728
1,35,1,1,0,1,PERTURBATION,0,ROTATION,0.263341903686523,-90,-130.319273743154,-40.3192737431537,80,158,msl000290,v1,0.263073682785034,2.95099854469299,-20.6848228454589,9.29760665893568,3728
1,-50,1,1,0,0,PERTURBATION,0,ROTATION,0.580434083938599,-90,-99.8759157343326,-9.87591573433258,80,159,msl000290,v1,0,0,0,0,3728
1,-50,1,1,0,1,PERTURBATION,0,ROTATION,0.418788909912109,-90,-36.6824709585988,53.3175290414012,80,160,msl000290,v1,0.200420379638672,4.49640130996704,55.7155712127689,19.9736442565919,3809
1,60,1,1,0,0,PERTURBATION,0,ROTATION,0.55492091178894,-90,-107.296713892318,-17.2967138923177,80,161,msl000290,v1,0,0,0,0,3809
1,60,1,1,0,1,PERTURBATION,0,ROTATION,0.329993963241577,-90,-107.921837213814,-17.9218372138138,80,162,msl000290,v1,0.217000722885132,3.35298371315002,-36.0316268920898,26.9797939300538,3809
1,-30,1,1,0,0,PERTURBATION,0,ROTATION,0.462670803070068,-90,-109.171226996002,-19.1712269960021,80,163,msl000290,v1,0,0,0,0,3809
1,-30,1,1,0,1,PERTURBATION,0,ROTATION,0.368396043777466,-90,-61.6514230262124,28.3485769737876,80,164,msl000290,v1,0.306299448013306,3.61833739280701,43.0377765655519,24.3107845306398,3885
1,45,1,1,0,0,PERTURBATION,0,ROTATION,0.386924028396606,-90,-98.2870698185751,-8.28706981857505,80,165,msl000290,v1,0,0,0,0,3885
1,45,1,1,0,1,PERTURBATION,0,ROTATION,0.231377124786377,-90,-103.505021446005,-13.5050214460053,80,166,msl000290,v1,0.498261690139771,3.25027370452881,-29.0254772186279,24.3107845306398,3885
1,30,1,1,0,0,PERTURBATION,0,ROTATION,0.431395053863525,-90,-110.380903797742,-20.3809037977424,80,167,msl000290,v1,0,0,0,0,3885
1,30,1,1,0,1,PERTURBATION,0,ROTATION,0.524632930755615,-90,-121.566009949451,-31.5660099494505,80,168,msl000290,v1,0.17784571647644,2.00976467132568,-9.34153289794922,20.3072704315187,3965
1,0,1,1,0,0,PERTURBATION,0,ROTATION,0.453805923461914,-90,-107.058835039103,-17.0588350391031,80,169,msl000290,v1,0,0,0,0,3965
1,0,1,1,0,1,PERTURBATION,0,ROTATION,0.208678960800171,-90,-82.3486833104669,7.65131668953315,80,170,msl000290,v1,0.0378010272979736,1.98174595832825,13.6786731719971,21.6417751312257,4044
1,-35,1,1,0,0,PERTURBATION,0,ROTATION,0.405616044998169,-90,-102.798362056014,-12.7983620560136,80,171,msl000290,v1,0,0,0,0,4044
1,-35,1,1,0,1,PERTURBATION,0,ROTATION,0.321388959884644,-90,-41.0211863644085,48.9788136355915,80,172,msl000290,v1,0.729732275009155,3.85776734352112,46.2072252273561,22.642653656006,4044
1,45,1,1,0,0,PERTURBATION,0,ROTATION,0.661098003387451,-90,-101.226434052735,-11.2264340527346,80,173,msl000290,v1,0,0,0,0,4044
1,45,1,1,0,1,PERTURBATION,0,ROTATION,0.306065082550049,-90,-137.853722856137,-47.853722856137,80,174,msl000290,v1,0.25626277923584,2.9922366142273,-28.6918510437011,26.3125415802003,4118
1,60,1,1,0,0,PERTURBATION,0,ROTATION,0.288027048110962,-90,-109.878820743876,-19.8788207438761,80,175,msl000290,v1,0,0,0,0,4118
1,60,1,1,0,1,PERTURBATION,0,ROTATION,0.435109853744507,-90,-136.472648404024,-46.4726484040235,80,176,msl000290,v1,0.358196020126343,3.35827398300171,-34.0298698425292,22.642653656006,4118
1,-45,1,1,0,0,PERTURBATION,0,ROTATION,0.427871942520142,-90,-114.469838907855,-24.4698389078549,80,177,msl000290,v1,0,0,0,0,4118
1,-45,1,1,0,1,PERTURBATION,0,ROTATION,0.368629932403564,-90,-43.2607441481613,46.7392558518387,80,178,msl000290,v1,0.239923000335693,5.6639621257782,70.0614967346197,25.9789154052735,4193
1,30,1,1,0,0,PERTURBATION,0,ROTATION,0.481588840484619,-90,-113.605844006477,-23.6058440064766,80,179,msl000290,v1,0,0,0,0,4193
1,30,1,1,0,1,PERTURBATION,0,ROTATION,0.368832111358643,-90,-123.951264759294,-33.9512647592942,80,180,msl000290,v1,0.249516010284424,2.63355708122253,-7.33977584838868,20.6408966064454,4273
1,15,1,1,0,0,PERTURBATION,0,ROTATION,0.393661022186279,-90,-110.056706408032,-20.0567064080318,80,181,msl000290,v1,0,0,0,0,4273
1,15,1,1,0,1,PERTURBATION,0,ROTATION,0.364804983139038,-90,-113.979949282237,-23.9799492822374,80,182,msl000290,v1,0.275710105895996,1.87566208839417,2.66900939941406,20.6408966064454,4353
1,-15,1,1,0,0,PERTURBATION,0,ROTATION,0.470988035202026,-90,-108.584712008575,-18.584712008575,80,183,msl000290,v1,0,0,0,0,4353
1,-15,1,1,0,1,PERTURBATION,0,ROTATION,0.348623037338257,-90,-58.9469163488925,31.0530836511075,80,184,msl000290,v1,0.19852614402771,3.64654111862183,35.5311876296997,21.9754013061525,4353
1,25,1,1,0,0,PERTURBATION,0,ROTATION,0.399070024490356,-90,-105.111987571331,-15.1119875713314,80,185,msl000290,v1,0,0,0,0,4353
1,25,1,1,0,1,PERTURBATION,0,ROTATION,0.328715801239014,-90,-121.98639026687,-31.98639026687,80,186,msl000290,v1,0.234436273574829,2.24244713783264,-13.5118600845337,27.9806724548341,4426
1,-60,1,1,0,0,PERTURBATION,0,ROTATION,0.795248985290527,-90,-112.966331145279,-22.9663311452788,80,187,msl000290,v1,0,0,0,0,4426
1,-60,1,1,0,1,PERTURBATION,0,ROTATION,0.546298980712891,-90,-18.7439810837648,71.2560189162352,80,188,msl000290,v1,0.304885149002075,6.92089605331421,81.5715997695931,16.9710086822511,4426
1,-40,1,1,0,0,PERTURBATION,0,ROTATION,0.328742027282715,-90,-106.526688652924,-16.5266886529245,80,189,msl000290,v1,0,0,0,0,4426
1,-40,1,1,0,1,PERTURBATION,0,ROTATION,0.404420852661133,-90,-36.7930215248,53.2069784752,80,190,msl000290,v1,0.233221769332886,4.25724482536316,53.0465618133548,15.6365039825441,4426
1,50,1,1,0,0,PERTURBATION,0,ROTATION,0.403618097305298,-90,-99.6398617373166,-9.63986173731664,80,191,msl000290,v1,0,0,0,0,4426
1,50,1,1,0,1,PERTURBATION,0,ROTATION,0.477890014648438,-90,-128.488717811144,-38.4887178111441,80,192,msl000290,v1,0.308126211166382,3.16403722763062,-29.8595426559447,22.9762798309327,4426
1,55,1,1,0,0,PERTURBATION,0,ROTATION,0.727566003799439,-90,-108.60721863928,-18.6072186392801,80,193,msl000290,v1,0,0,0,0,4426
1,55,1,1,0,1,PERTURBATION,0,ROTATION,0.34691309928894,-90,-141.933531436925,-51.9335314369248,80,194,msl000290,v1,0.268007040023804,3.20403409004211,-28.8586641311645,26.6461677551271,4500
1,-25,1,1,0,0,PERTURBATION,0,ROTATION,0.76882004737854,-90,-112.194583425384,-22.1945834253835,80,195,msl000290,v1,0,0,0,0,4500
1,-25,1,1,0,1,PERTURBATION,0,ROTATION,0.387836217880249,-90,-103.111347294998,-13.1113472949978,80,196,msl000290,v1,0.497052431106567,4.21712040901184,45.0395336151124,21.308148956299,4500
1,-50,1,1,0,0,PERTURBATION,0,ROTATION,0.509092092514038,-90,-99.0261244104117,-9.02612441041167,80,197,msl000290,v1,0,0,0,0,4500
1,-50,1,1,0,1,PERTURBATION,0,ROTATION,0.394572973251343,-90,-56.3333937100285,33.6666062899715,80,198,msl000290,v1,0.976365327835083,6.64840435981751,52.2124963760379,31.6505603790284,4500
1,40,1,1,0,0,PERTURBATION,0,ROTATION,0.411904096603394,-90,-95.2846149249101,-5.28461492491009,80,199,msl000290,v1,0,0,0,0,4500
1,40,1,1,0,1,PERTURBATION,0,ROTATION,0.426805019378662,-90,-127.800350169581,-37.8003501695806,80,200,msl000290,v1,0.270097255706787,2.82204127311707,-25.8560285568237,22.9762798309327,4578
1,-30,1,1,0,0,PERTURBATION,0,ROTATION,0.91356897354126,-90,-106.924927438192,-16.924927438192,80,201,msl000290,v1,0,0,0,0,4578
1,-30,1,1,0,1,PERTURBATION,0,ROTATION,1.2113881111145,-90,-47.0708425980525,42.9291574019475,80,202,msl000290,v1,0.22440767288208,3.79245853424072,43.2045896530152,27.9806724548341,4651
1,35,1,1,0,0,PERTURBATION,0,ROTATION,0.387424945831299,-90,-102.384656769155,-12.3846567691553,80,203,msl000290,v1,0,0,0,0,4651
1,35,1,1,0,1,PERTURBATION,0,ROTATION,0.315886974334717,-90,-131.900284836233,-41.9002848362333,80,204,msl000290,v1,0.577372312545776,3.12138247489929,-25.3555892944335,23.977158355713,4728
1,-20,1,1,0,0,PERTURBATION,0,ROTATION,0.726592063903809,-90,-104.523902054187,-14.523902054187,80,205,msl000290,v1,0,0,0,0,4728
1,-20,1,1,0,1,PERTURBATION,0,ROTATION,0.456809997558594,-90,-59.8862805706458,30.1137194293542,80,206,msl000290,v1,0.265656232833862,3.52162909507752,39.3678886413575,22.642653656006,4806
1,-55,1,1,0,0,PERTURBATION,0,ROTATION,0.971872091293335,-90,-104.037052705,-14.0370527050005,80,207,msl000290,v1,0,0,0,0,4806
1,-55,1,1,0,1,PERTURBATION,0,ROTATION,0.417981147766113,-90,-36.9532901626287,53.0467098373713,80,208,msl000290,v1,0.42747688293457,5.13151001930237,62.3880947113041,23.977158355713,4883
1,20,1,1,0,0,PERTURBATION,0,ROTATION,0.554880142211914,-90,-95.7206443442363,-5.72064434423633,80,209,msl000290,v1,0,0,0,0,4883
1,20,1,1,0,1,PERTURBATION,0,ROTATION,0.383695840835571,-90,-115.053694567394,-25.0536945673937,80,210,msl000290,v1,0.271101474761963,2.67914462089539,-14.8463647842407,30.6496818542481,4953
1,15,1,1,0,0,PERTURBATION,0,ROTATION,1.12720394134521,-90,-106.646218448313,-16.6462184483128,80,211,msl000290,v1,0,0,0,0,4953
1,15,1,1,0,1,PERTURBATION,0,ROTATION,0.425150871276855,-90,-106.607584140222,-16.6075841402224,80,212,msl000290,v1,0.261069059371948,2.10098505020142,0,26.9797939300538,5027
1,-20,1,1,0,0,PERTURBATION,0,ROTATION,0.404071092605591,-90,-106.565058469159,-16.5650584691587,80,213,msl000290,v1,0,0,0,0,5027
1,-20,1,1,0,1,PERTURBATION,0,ROTATION,0.326172113418579,-90,-59.6726706629062,30.3273293370938,80,214,msl000290,v1,0.0472774505615234,2.69523525238037,29.525916481018,27.3134201049806,5100
1,50,1,1,0,0,PERTURBATION,0,ROTATION,0.341840982437134,-90,-103.954191245912,-13.9541912459124,80,215,msl000290,v1,0,0,0,0,5100
1,50,1,1,0,1,PERTURBATION,0,ROTATION,0.362775087356567,-90,-105.061087968701,-15.0610879687012,80,216,msl000290,v1,0.193591833114624,3.17768478393555,-32.3617389678954,23.6435321807863,5100
1,-45,1,1,0,0,PERTURBATION,0,ROTATION,1.44578909873962,-90,-111.182133517217,-21.1821335172165,80,217,msl000290,v1,0,0,0,0,5100
1,-45,1,1,0,1,PERTURBATION,0,ROTATION,0.390460014343262,-90,-56.4296141865707,33.5703858134293,80,218,msl000290,v1,0.403247117996216,4.76322817802429,58.2177675247196,26.6461677551271,5174
1,-60,1,1,0,0,PERTURBATION,0,ROTATION,0.57628607749939,-90,-94.5987728490707,-4.59877284907067,80,219,msl000290,v1,0,0,0,0,5174
1,-60,1,1,0,1,PERTURBATION,0,ROTATION,0.373533964157105,-90,-47.7277753501162,42.2722246498838,80,220,msl000290,v1,0.245122194290161,4.34910225868225,58.7182067871098,28.3142986297608,5174
1,35,1,1,0,0,PERTURBATION,0,ROTATION,0.42951512336731,-90,-100.752455023696,-10.7524550236963,80,221,msl000290,v1,0,0,0,0,5174
1,35,1,1,0,1,PERTURBATION,0,ROTATION,0.238173007965088,-90,-125.081012695884,-35.0810126958835,80,222,msl000290,v1,0.293762683868408,2.34177374839783,-22.019327545166,27.3134201049806,5247
1,-50,1,1,0,0,PERTURBATION,0,ROTATION,0.316272974014282,-90,-96.8590092775613,-6.85900927756131,80,223,msl000290,v1,0,0,0,0,5247
1,-50,1,1,0,1,PERTURBATION,0,ROTATION,0.428075075149536,-90,-54.0365224029213,35.9634775970787,80,224,msl000290,v1,0.903765439987183,5.35183143615723,69.2274312973028,30.3160556793214,5317
1,45,1,1,0,0,PERTURBATION,0,ROTATION,0.285490036010742,-90,-94.2707049851188,-4.27070498511878,80,225,msl000290,v1,0,0,0,0,5317
1,45,1,1,0,1,PERTURBATION,0,ROTATION,0.272758960723877,-90,-125.171201422583,-35.1712014225834,80,226,msl000290,v1,0.226804494857788,2.6668393611908,-28.3582248687743,25.31166305542,5392
1,60,1,1,0,0,PERTURBATION,0,ROTATION,0.49118185043335,-90,-91.462535196962,-1.46253519696201,80,227,msl000290,v1,0,0,0,0,5392
1,60,1,1,0,1,PERTURBATION,0,ROTATION,0.360502004623413,-90,-132.532620379766,-42.5326203797656,80,228,msl000290,v1,0.176446199417114,3.69650530815125,-49.0430477142336,25.31166305542,5392
1,-35,1,1,0,0,PERTURBATION,0,ROTATION,0.442031145095825,-90,-98.7861517365768,-8.78615173657683,80,229,msl000290,v1,0,0,0,0,5392
1,-35,1,1,0,1,PERTURBATION,0,ROTATION,0.385926008224487,-90,-67.3610428991567,22.6389571008433,80,230,msl000290,v1,0.0875625610351563,3.68753838539124,46.3740383148195,25.31166305542,5467
1,-40,1,1,0,0,PERTURBATION,0,ROTATION,0.477766990661621,-90,-101.070598650732,-11.070598650732,80,231,msl000290,v1,0,0,0,0,5467
1,-40,1,1,0,1,PERTURBATION,0,ROTATION,0.638154029846191,-90,-53.4158851463044,36.5841148536956,80,232,msl000290,v1,0.215532302856445,5.98344349861145,57.2168889999393,18.6391395568849,5549
1,40,1,1,0,0,PERTURBATION,0,ROTATION,0.704225063323975,-90,-97.3238150918423,-7.32381509184225,80,233,msl000290,v1,0,0,0,0,5549
1,40,1,1,0,1,PERTURBATION,0,ROTATION,0.337998151779175,-90,-131.969359990787,-41.9693599907875,80,234,msl000290,v1,0.325912475585938,2.46982431411743,-26.3564678192138,26.9797939300538,5623
1,-55,1,1,0,0,PERTURBATION,0,ROTATION,0.36360502243042,-90,-110.888591665101,-20.8885916651007,80,235,msl000290,v1,0,0,0,0,5623
1,-55,1,1,0,1,PERTURBATION,0,ROTATION,0.449420928955078,-90,-37.5661447019166,52.4338552980834,80,236,msl000290,v1,0.199879884719849,5.24788498878479,76.5672071456916,20.9745227813722,5703
1,30,1,1,0,0,PERTURBATION,0,ROTATION,0.198124885559082,-90,-101.454676153534,-11.4546761535337,80,237,msl000290,v1,0,0,0,0,5703
1,30,1,1,0,1,PERTURBATION,0,ROTATION,0.242023944854736,-90,-131.15328158595,-41.15328158595,80,238,msl000290,v1,0.224198341369629,2.55215930938721,-23.353832244873,28.9815509796144,5775
1,-25,1,1,0,0,PERTURBATION,0,ROTATION,0.461856842041016,-90,-102.585418562056,-12.5854185620559,80,239,msl000290,v1,0,0,0,0,5775
1,-25,1,1,0,1,PERTURBATION,0,ROTATION,0.3458411693573,-90,-56.0904230678708,33.9095769321292,80,240,msl000290,v1,0.151142835617065,3.11909985542297,34.5303091049194,26.9797939300538,5849
1,20,1,1,0,0,PERTURBATION,0,ROTATION,0.393488883972168,-90,-105.580519886357,-15.5805198863565,80,241,msl000290,v1,0,0,0,0,5849
1,20,1,1,0,1,PERTURBATION,0,ROTATION,0.418221950531006,-90,-111.306013190161,-21.3060131901609,80,242,msl000290,v1,0.350792169570923,2.43874311447144,-4.0035140991211,25.31166305542,5924
1,-30,1,1,0,0,PERTURBATION,0,ROTATION,0.358175992965698,-90,-105.36498278691,-15.3649827869104,80,243,msl000290,v1,0,0,0,0,5924
1,-30,1,1,0,1,PERTURBATION,0,ROTATION,0.426229000091553,-90,-76.4925634301787,13.5074365698213,80,244,msl000290,v1,0.970718145370483,4.29868507385254,40.8692064285279,19.9736442565919,5924
1,-15,1,1,0,0,PERTURBATION,0,ROTATION,0.376677989959717,-90,-94.0561171175766,-4.05611711757656,80,245,msl000290,v1,0,0,0,0,5924
1,-15,1,1,0,1,PERTURBATION,0,ROTATION,0.389765024185181,-90,-76.6249641018515,13.3750358981485,80,246,msl000290,v1,0.204459667205811,3.00444483757019,27.3573463439941,22.642653656006,6002
1,55,1,1,0,0,PERTURBATION,0,ROTATION,0.504369974136353,-90,-107.407028623914,-17.4070286239139,80,247,msl000290,v1,0,0,0,0,6002
1,55,1,1,0,1,PERTURBATION,0,ROTATION,0.324785947799683,-90,-134.174765376403,-44.1747653764027,80,248,msl000290,v1,0.267814159393311,3.15585398674011,-36.1984399795532,19.9736442565919,6002
1,25,1,1,0,0,PERTURBATION,0,ROTATION,0.461927890777588,-90,-115.511985705474,-25.5119857054741,80,249,msl000290,v1,0,0,0,0,6002
1,25,1,1,0,1,PERTURBATION,0,ROTATION,0.372730016708374,-90,-113.771235224409,-23.7712352244092,80,250,msl000290,v1,0.42679238319397,1.64268922805786,0,16.3037563323976,6086
1,0,1,1,0,0,PERTURBATION,0,ROTATION,0.405729055404663,-90,-108.099682519303,-18.0996825193033,80,251,msl000290,v1,0,0,0,0,6086
1,0,1,1,0,1,PERTURBATION,0,ROTATION,0.378415107727051,-90,-82.9988344963731,7.00116550362687,80,252,msl000290,v1,0.0300188064575195,1.77396583557129,19.5171312332153,29.3151771545411,6157
1,0,1,1,0,0,PERTURBATION,0,ROTATION,2.45892906188965,-90,-90.2341108193013,-0.234110819301279,80,1,msl000298,v1,0,0,0,0,0
1,0,1,1,0,1,PERTURBATION,0,ROTATION,0.334975004196167,-90,-89.2530352051371,0.74696479486289,80,2,msl000298,v1,1.8767523765564,4.69280123710632,0,1,0
1,30,1,1,0,0,PERTURBATION,0,ROTATION,0.54026198387146,-90,-91.4630879903088,-1.46308799030882,80,3,msl000298,v1,0,0,0,0,0
1,30,1,1,0,1,PERTURBATION,0,ROTATION,0.330466985702515,-90,-124.374280920898,-34.3742809208978,80,4,msl000298,v1,0.664222240447998,6.38426637649536,-28.0244064331055,28.6480712890625,72
1,-55,1,1,0,0,PERTURBATION,0,ROTATION,0.912976026535034,-90,-94.9116435580976,-4.91164355809755,80,5,msl000298,v1,0,0,0,0,72
1,-55,1,1,0,1,PERTURBATION,0,ROTATION,0.357151985168457,-90,-38.9578048882968,51.0421951117032,80,6,msl000298,v1,1.07142496109009,7.671550989151,58.2173681259155,15.636739730835,157
1,-45,1,1,0,0,PERTURBATION,0,ROTATION,1.07108902931213,-90,-88.8058062204775,1.19419377952251,80,7,msl000298,v1,0,0,0,0,157
1,-45,1,1,0,1,PERTURBATION,0,ROTATION,0.273437023162842,-90,-52.071631149375,37.928368850625,80,8,msl000298,v1,0.547842264175415,6.9879162311554,46.040096282959,13.6349964141846,157
1,25,1,1,0,0,PERTURBATION,0,ROTATION,0.801262140274048,-90,-79.3654902604327,10.6345097395673,80,9,msl000298,v1,0,0,0,0,157
1,25,1,1,0,1,PERTURBATION,0,ROTATION,0.350518941879272,-90,-131.379325331804,-41.379325331804,80,10,msl000298,v1,0.475003480911255,4.37102341651917,-34.363260269165,16.9712352752686,157
1,35,1,1,0,0,PERTURBATION,0,ROTATION,0.508131980895996,-90,-87.2529074727733,2.74709252722676,80,11,msl000298,v1,0,0,0,0,157
1,35,1,1,0,1,PERTURBATION,0,ROTATION,0.360549926757813,-90,-133.422782561356,-43.4227825613558,80,12,msl000298,v1,1.20471739768982,5.67678141593933,-38.53355884552,16.6376113891602,241
1,-60,1,1,0,0,PERTURBATION,0,ROTATION,0.819506168365479,-90,-96.9284109220397,-6.92841092203973,80,13,msl000298,v1,0,0,0,0,241
1,-60,1,1,0,1,PERTURBATION,0,ROTATION,0.277921915054321,-90,-31.3665859221245,58.6334140778755,80,14,msl000298,v1,0.535011291503906,7.98304629325867,66.5579652786255,12.9677486419678,329
1,60,1,1,0,0,PERTURBATION,0,ROTATION,1.50444793701172,-90,-90.2399494666088,-0.23994946660882,80,15,msl000298,v1,0,0,0,0,329
1,60,1,1,0,1,PERTURBATION,0,ROTATION,0.287101030349731,-90,-152.749095889859,-62.7490958898593,80,16,msl000298,v1,0.0933535099029541,7.57344055175781,-53.546633720398,12.300500869751,417
1,-50,1,1,0,0,PERTURBATION,0,ROTATION,1.09721398353577,-90,-86.4818416973994,3.51815830260065,80,17,msl000298,v1,0,0,0,0,417
1,-50,1,1,0,1,PERTURBATION,0,ROTATION,0.29414701461792,-90,-41.4425289030173,48.5574710969827,80,18,msl000298,v1,0.552043676376343,10.9681346416473,49.8767709732056,12.300500869751,505
1,-15,1,1,0,0,PERTURBATION,0,ROTATION,1.0870258808136,-90,-90.4153984485996,-0.415398448599618,80,19,msl000298,v1,0,0,0,0,505
1,-15,1,1,0,1,PERTURBATION,0,ROTATION,0.311360120773315,-90,-69.4418359190345,20.5581640809655,80,20,msl000298,v1,0.387156248092651,5.84327030181885,12.6777076721191,2.29178428649902,505
1,50,1,1,0,0,PERTURBATION,0,ROTATION,0.430454015731812,-90,-87.4695360206171,2.53046397938286,80,21,msl000298,v1,0,0,0,0,505
1,50,1,1,0,1,PERTURBATION,0,ROTATION,0.359385013580322,-90,-153.134819246097,-63.134819246097,80,22,msl000298,v1,0.498995542526245,7.57906651496887,-53.2130098342896,17.304859161377,505
1,45,1,1,0,0,PERTURBATION,0,ROTATION,0.582134962081909,-90,-91.7972730006616,-1.7972730006616,80,23,msl000298,v1,0,0,0,0,505
1,45,1,1,0,1,PERTURBATION,0,ROTATION,0.324036121368408,-90,-142.162900762192,-52.1629007621917,80,24,msl000298,v1,0.387001037597656,5.92310500144959,-39.2008066177368,18.972978591919,587
1,-25,1,1,0,0,PERTURBATION,0,ROTATION,0.585909128189087,-90,-90.754324271782,-0.754324271782039,80,25,msl000298,v1,0,0,0,0,587
1,-25,1,1,0,1,PERTURBATION,0,ROTATION,0.285014152526855,-90,-55.0978601946201,34.9021398053799,80,26,msl000298,v1,0.449136257171631,5.1212432384491,29.1920900344849,9.96513366699219,587
1,15,1,1,0,0,PERTURBATION,0,ROTATION,0.81191897392273,-90,-85.2389297756822,4.76107022431779,80,27,msl000298,v1,0,0,0,0,587
1,15,1,1,0,1,PERTURBATION,0,ROTATION,0.246011018753052,-90,-121.45513302328,-31.4551330232802,80,28,msl000298,v1,0.319843769073486,3.98385977745056,-21.0183048248291,16.9712352752686,587
1,-30,1,1,0,0,PERTURBATION,0,ROTATION,2.34010100364685,-90,-97.6517762518368,-7.65177625183682,80,29,msl000298,v1,0,0,0,0,587
1,-30,1,1,0,1,PERTURBATION,0,ROTATION,0.387104988098145,-90,-48.7825630255973,41.2174369744027,80,30,msl000298,v1,0.20906662940979,5.51311755180359,40.0348663330078,21.6419696807861,587
1,20,1,1,0,0,PERTURBATION,0,ROTATION,0.786262035369873,-90,-86.8545136016694,3.14548639833065,80,31,msl000298,v1,0,0,0,0,587
1,20,1,1,0,1,PERTURBATION,0,ROTATION,0.109894037246704,-90,-127.896855323336,-37.8968553233356,80,32,msl000298,v1,0.33770751953125,4.10569047927856,-25.8558511734009,23.6437129974365,587
1,40,1,1,0,0,PERTURBATION,0,ROTATION,0.632853984832764,-90,-90.3802530104669,-0.380253010466902,80,33,msl000298,v1,0,0,0,0,587
1,40,1,1,0,1,PERTURBATION,0,ROTATION,0.445240020751953,-90,-134.648590841176,-44.6485908411763,80,34,msl000298,v1,1.07655429840088,4.86062431335449,-39.2008066177368,13.3013725280762,674
1,-35,1,1,0,0,PERTURBATION,0,ROTATION,1.88871693611145,-90,-98.1170935574019,-8.11709355740187,80,35,msl000298,v1,0,0,0,0,674
1,-35,1,1,0,1,PERTURBATION,0,ROTATION,0.152343034744263,-90,-39.3726246258243,50.6273753741757,80,36,msl000298,v1,0.223431348800659,5.0234363079071,49.7099590301514,23.3100891113281,674
1,55,1,1,0,0,PERTURBATION,0,ROTATION,0.67706298828125,-90,-88.6412709868486,1.35872901315142,80,37,msl000298,v1,0,0,0,0,674
1,55,1,1,0,1,PERTURBATION,0,ROTATION,0.285698890686035,-90,-154.324873279027,-64.3248732790271,80,38,msl000298,v1,0.171882390975952,4.7799084186554,-55.0479412078857,22.3092174530029,752
1,-40,1,1,0,0,PERTURBATION,0,ROTATION,0.82449197769165,-90,-90.9493807347142,-0.949380734714154,80,39,msl000298,v1,0,0,0,0,752
1,-40,1,1,0,1,PERTURBATION,0,ROTATION,0.173485040664673,-90,-51.9822979858112,38.0177020141888,80,40,msl000298,v1,0.0286033153533936,3.94863438606262,36.5318155288696,21.3083457946777,831
1,-20,1,1,0,0,PERTURBATION,0,ROTATION,1.67525911331177,-90,-91.760280016892,-1.76028001689195,80,41,msl000298,v1,0,0,0,0,831
1,-20,1,1,0,1,PERTURBATION,0,ROTATION,0.302032947540283,-90,-72.3517337902314,17.6482662097686,80,42,msl000298,v1,0.665726184844971,4.42576718330383,10.0087165832519,9.96513366699219,831
1,15,1,1,0,0,PERTURBATION,0,ROTATION,0.647017002105713,-90,-94.0180126008867,-4.01801260088673,80,43,msl000298,v1,0,0,0,0,831
1,15,1,1,0,1,PERTURBATION,0,ROTATION,0.170614004135132,-90,-103.672078969248,-13.6720789692481,80,44,msl000298,v1,1.48206186294556,3.87407684326172,-8.00697326660156,13.968620300293,918
1,-40,1,1,0,0,PERTURBATION,0,ROTATION,1.36845397949219,-90,-93.7683716473634,-3.76837164736341,80,45,msl000298,v1,0,0,0,0,918
1,-40,1,1,0,1,PERTURBATION,0,ROTATION,0.313767910003662,-90,-44.7968299538182,45.2031700461818,80,46,msl000298,v1,0.502629280090332,4.82262635231018,43.7047290802002,18.972978591919,1000
1,60,1,1,0,0,PERTURBATION,0,ROTATION,1.39275503158569,-90,-92.2546869143151,-2.25468691431509,80,47,msl000298,v1,0,0,0,0,1000
1,60,1,1,0,1,PERTURBATION,0,ROTATION,0.336549997329712,-90,-138.670236807215,-48.6702368072153,80,48,msl000298,v1,0.532949447631836,5.89293742179871,-49.7099590301514,16.6376113891602,1000
1,35,1,1,0,0,PERTURBATION,0,ROTATION,0.895019769668579,-90,-95.0099565540724,-5.00995655407238,80,49,msl000298,v1,0,0,0,0,1000
1,35,1,1,0,1,PERTURBATION,0,ROTATION,0.351841926574707,-90,-135.583264345742,-45.5832643457421,80,50,msl000298,v1,0.458241939544678,4.41828393936157,-26.0226631164551,15.9703636169434,1000
1,-20,1,1,0,0,PERTURBATION,0,ROTATION,2.58636283874512,-90,-94.1844832042312,-4.18448320423121,80,51,msl000298,v1,0,0,0,0,1000
1,-20,1,1,0,1,PERTURBATION,0,ROTATION,0.32959508895874,-90,-58.9646807099415,31.0353192900585,80,52,msl000298,v1,0.381975173950195,3.83000922203064,26.3562870025635,11.9668769836426,1000
1,-35,1,1,0,0,PERTURBATION,0,ROTATION,0.62462306022644,-90,-89.8184103251357,0.18158967486427,80,53,msl000298,v1,0,0,0,0,1000
1,-35,1,1,0,1,PERTURBATION,0,ROTATION,0.279149055480957,-90,-53.6800146442413,36.3199853557587,80,54,msl000298,v1,0.327354431152344,5.22342538833618,37.5326871871948,6.6288948059082,1094
1,55,1,1,0,0,PERTURBATION,0,ROTATION,1.01287508010864,-90,-90.4303492444007,-0.430349244400659,80,55,msl000298,v1,0,0,0,0,1094
1,55,1,1,0,1,PERTURBATION,0,ROTATION,0.385201215744019,-90,-160.893147991052,-70.8931479910521,80,56,msl000298,v1,0.273344278335571,5.14547729492188,-56.0488128662109,6.9625186920166,1094
1,20,1,1,0,0,PERTURBATION,0,ROTATION,1.28810811042786,-90,-95.3871764151195,-5.38717641511951,80,57,msl000298,v1,0,0,0,0,1094
1,20,1,1,0,1,PERTURBATION,0,ROTATION,0.375699043273926,-90,-119.094204687346,-29.0942046873462,80,58,msl000298,v1,0.577149868011475,4.36922287940979,-15.0130748748779,13.3013725280762,1094
1,-45,1,1,0,0,PERTURBATION,0,ROTATION,1.26295399665833,-90,-94.6225986495433,-4.62259864954329,80,59,msl000298,v1,0,0,0,0,1094
1,-45,1,1,0,1,PERTURBATION,0,ROTATION,0.305566072463989,-90,-47.3329588518843,42.6670411481157,80,60,msl000298,v1,0.325536251068115,4.35756921768189,42.2034215927124,17.304859161377,1177
1,25,1,1,0,0,PERTURBATION,0,ROTATION,1.08698320388794,-90,-97.2379677940543,-7.23796779405426,80,61,msl000298,v1,0,0,0,0,1177
1,25,1,1,0,1,PERTURBATION,0,ROTATION,0.252760171890259,-90,-126.715861007407,-36.7158610074072,80,62,msl000298,v1,0.26615834236145,3.49017238616943,-20.6846809387207,16.3039875030518,1177
1,45,1,1,0,0,PERTURBATION,0,ROTATION,0.548189878463745,-90,-93.2332548986345,-3.23325489863453,80,63,msl000298,v1,0,0,0,0,1177
1,45,1,1,0,1,PERTURBATION,0,ROTATION,0.279960870742798,-90,-130.265157813365,-40.2651578133648,80,64,msl000298,v1,0.209503889083862,4.36951971054077,-29.8593378067017,9.29788589477539,1177
1,0,1,1,0,0,PERTURBATION,0,ROTATION,2.3870050907135,-90,-101.732859252834,-11.732859252834,80,65,msl000298,v1,0,0,0,0,1177
1,0,1,1,0,1,PERTURBATION,0,ROTATION,0.370710134506226,-90,-87.5182588500323,2.4817411499677,80,66,msl000298,v1,0.338027238845825,2.9700071811676,10.5091524124146,10.9660053253174,1267
1,-30,1,1,0,0,PERTURBATION,0,ROTATION,0.962383031845093,-90,-97.9691449930369,-7.96914499303685,80,67,msl000298,v1,0,0,0,0,1267
1,-30,1,1,0,1,PERTURBATION,0,ROTATION,0.330524921417236,-90,-62.7398373735126,27.2601626264874,80,68,msl000298,v1,0.258321046829224,4.72239494323731,38.53355884552,10.2987575531006,1357
1,50,1,1,0,0,PERTURBATION,0,ROTATION,0.648185014724731,-90,-98.1610804616379,-8.16108046163787,80,69,msl000298,v1,0,0,0,0,1357
1,50,1,1,0,1,PERTURBATION,0,ROTATION,0.314854860305786,-90,-128.456034247301,-38.4560342473008,80,70,msl000298,v1,0.515447854995728,3.73950171470642,-22.1859884262085,9.96513366699219,1357
1,-15,1,1,0,0,PERTURBATION,0,ROTATION,0.701709985733032,-90,-98.4702872751951,-8.47028727519511,80,71,msl000298,v1,0,0,0,0,1357
1,-15,1,1,0,1,PERTURBATION,0,ROTATION,0.293004035949707,-90,-82.4165038457687,7.58349615423128,80,72,msl000298,v1,1.51560997962952,4.69163703918457,19.3501853942871,12.6341247558594,1357
1,40,1,1,0,0,PERTURBATION,0,ROTATION,0.881145000457764,-90,-99.9682911187417,-9.96829111874166,80,73,msl000298,v1,0,0,0,0,1357
1,40,1,1,0,1,PERTURBATION,0,ROTATION,0.335813045501709,-90,-125.774550260666,-35.774550260666,80,74,msl000298,v1,0.328613519668579,3.98467636108398,-27.6907825469971,9.63150978088379,1357
1,-55,1,1,0,0,PERTURBATION,0,ROTATION,0.6337730884552,-90,-99.5541637839592,-9.5541637839592,80,75,msl000298,v1,0,0,0,0,1357
1,-55,1,1,0,1,PERTURBATION,0,ROTATION,0.100688934326172,-90,-28.4346843817491,61.5653156182509,80,76,msl000298,v1,0.490869760513306,8.25890564918518,74.2313146591187,9.96513366699219,1357
1,-50,1,1,0,0,PERTURBATION,0,ROTATION,0.861623048782349,-90,-99.3042409025723,-9.30424090257225,80,77,msl000298,v1,0,0,0,0,1357
1,-50,1,1,0,1,PERTURBATION,0,ROTATION,0.197745800018311,-90,-67.5394800929137,22.4605199070863,80,78,msl000298,v1,0.376880168914795,6.44090914726257,52.2121381759644,6.6288948059082,1357
1,30,1,1,0,0,PERTURBATION,0,ROTATION,0.653949975967407,-90,-93.3314607957488,-3.33146079574877,80,79,msl000298,v1,0,0,0,0,1357
1,30,1,1,0,1,PERTURBATION,0,ROTATION,0.230565071105957,-90,-115.850198940744,-25.8501989407437,80,80,msl000298,v1,0.288035869598389,2.80009174346924,-22.8532361984253,10.2987575531006,1357
1,-60,1,1,0,0,PERTURBATION,0,ROTATION,0.634651899337769,-90,-101.039468033037,-11.0394680330366,80,81,msl000298,v1,0,0,0,0,1357
1,-60,1,1,0,1,PERTURBATION,0,ROTATION,0.354050874710083,-90,-39.8322816895979,50.1677183104021,80,82,msl000298,v1,0.549339532852173,5.05332541465759,64.0557861328125,23.6437129974365,1434
1,-25,1,1,0,0,PERTURBATION,0,ROTATION,0.421179056167603,-90,-90.5283406870086,-0.528340687008623,80,83,msl000298,v1,0,0,0,0,1434
1,-25,1,1,0,1,PERTURBATION,0,ROTATION,0.338848114013672,-90,-60.9436438333759,29.0563561666241,80,84,msl000298,v1,0.0391535758972168,4.11913371086121,24.0209197998047,9.29788589477539,1525
1,30,1,1,0,0,PERTURBATION,0,ROTATION,0.894263982772827,-90,-90.0045116743588,-0.00451167435876698,80,85,msl000298,v1,0,0,0,0,1525
1,30,1,1,0,1,PERTURBATION,0,ROTATION,0.0506110191345215,-90,-122.809451559759,-32.809451559759,80,86,msl000298,v1,0.253821134567261,5.82988715171814,-23.8541078567505,4.29352760314941,1525
1,-20,1,1,0,0,PERTURBATION,0,ROTATION,0.627954006195068,-90,-96.4158133492598,-6.41581334925978,80,87,msl000298,v1,0,0,0,0,1525
1,-20,1,1,0,1,PERTURBATION,0,ROTATION,0.328607082366943,-90,-59.0892797306696,30.9107202693304,80,88,msl000298,v1,0.144933223724365,3.46493434906006,26.3562870025635,12.300500869751,1525
1,-45,1,1,0,0,PERTURBATION,0,ROTATION,1.04485893249512,-90,-89.4583192223138,0.541680777686196,80,89,msl000298,v1,0,0,0,0,1525
1,-45,1,1,0,1,PERTURBATION,0,ROTATION,0.414434194564819,-90,-50.9881971956217,39.0118028043784,80,90,msl000298,v1,0.49799370765686,4.73809480667114,45.7064723968506,14.6358680725098,1611
1,0,1,1,0,0,PERTURBATION,0,ROTATION,0.673014879226685,-90,-87.962245272434,2.03775472756597,80,91,msl000298,v1,0,0,0,0,1611
1,0,1,1,0,1,PERTURBATION,0,ROTATION,0.344663858413696,-90,-92.733437386115,-2.73343738611499,80,92,msl000298,v1,0.570417404174805,3.52243733406067,0,5.29439926147461,1611
1,20,1,1,0,0,PERTURBATION,0,ROTATION,2.59897494316101,-90,-94.1251100045575,-4.12511000455748,80,93,msl000298,v1,0,0,0,0,1611
1,20,1,1,0,1,PERTURBATION,0,ROTATION,0.304115056991577,-90,-117.374446860697,-27.3744468606969,80,94,msl000298,v1,0.283010244369507,4.01098227500916,-12.8445196151733,1.95816040039063,1611
1,50,1,1,0,0,PERTURBATION,0,ROTATION,0.642023086547852,-90,-105.459043017114,-15.459043017114,80,95,msl000298,v1,0,0,0,0,1611
1,50,1,1,0,1,PERTURBATION,0,ROTATION,0.287806987762451,-90,-122.607797253166,-32.6077972531658,80,96,msl000298,v1,0.717142343521118,3.04514050483704,-19.8506212234497,17.6384830474854,1611
1,-15,1,1,0,0,PERTURBATION,0,ROTATION,1.09887409210205,-90,-101.505669040326,-11.5056690403259,80,97,msl000298,v1,0,0,0,0,1611
1,-15,1,1,0,1,PERTURBATION,0,ROTATION,0.215882062911987,-90,-71.1504414227603,18.8495585772397,80,98,msl000298,v1,0.292789459228516,3.27676057815552,29.3589019775391,17.304859161377,1694
1,15,1,1,0,0,PERTURBATION,0,ROTATION,0.860114097595215,-90,-96.7228178612114,-6.7228178612114,80,99,msl000298,v1,0,0,0,0,1694
1,15,1,1,0,1,PERTURBATION,0,ROTATION,0.236456871032715,-90,-102.930818057128,-12.9308180571278,80,100,msl000298,v1,0.777567386627197,3.92161560058594,-3.83667469024658,23.9773368835449,1771
1,-50,1,1,0,0,PERTURBATION,0,ROTATION,0.720140933990479,-90,-101.355937268856,-11.3559372688559,80,101,msl000298,v1,0,0,0,0,1771
1,-50,1,1,0,1,PERTURBATION,0,ROTATION,0.252975940704346,-90,-35.5827238569848,54.4172761430153,80,102,msl000298,v1,0.401981830596924,6.85811471939087,70.5614519119263,12.6341247558594,1859
1,60,1,1,0,0,PERTURBATION,0,ROTATION,0.49724006652832,-90,-97.1996537151117,-7.19965371511174,80,103,msl000298,v1,0,0,0,0,1859
1,60,1,1,0,1,PERTURBATION,0,ROTATION,0.230787038803101,-90,-158.315981295955,-68.3159812959554,80,104,msl000298,v1,0.330306053161621,5.37034416198731,-54.7143173217773,15.3031158447266,1859
1,-25,1,1,0,0,PERTURBATION,0,ROTATION,0.720425844192505,-90,-97.6651169340326,-7.66511693403261,80,105,msl000298,v1,0,0,0,0,1859
1,-25,1,1,0,1,PERTURBATION,0,ROTATION,0.0919969081878662,-90,-90.1556030390573,-0.155603039057269,80,106,msl000298,v1,0.0532598495483398,7.96536874771118,0,100,1859
1,-55,1,1,0,0,PERTURBATION,0,ROTATION,0.889310121536255,-90,-95.2436310329409,-5.24363103294094,80,107,msl000298,v1,0,0,0,0,1859
1,-55,1,1,0,1,PERTURBATION,0,ROTATION,0.265239000320435,-90,-56.6852055183722,33.3147944816278,80,108,msl000298,v1,0.410881280899048,5.37895441055298,47.0409679412842,28.3144474029541,1859
1,35,1,1,0,0,PERTURBATION,0,ROTATION,0.679802179336548,-90,-91.7966673981367,-1.79666739813666,80,109,msl000298,v1,0,0,0,0,1859
1,35,1,1,0,1,PERTURBATION,0,ROTATION,0.160855054855347,-90,-129.35763864608,-39.3576386460797,80,110,msl000298,v1,0.265171527862549,2.42523050308228,-22.1859884262085,24.9782085418701,1935
1,40,1,1,0,0,PERTURBATION,0,ROTATION,0.484036207199097,-90,-97.9061080773291,-7.90610807732911,80,111,msl000298,v1,0,0,0,0,1935
1,40,1,1,0,1,PERTURBATION,0,ROTATION,0.15591287612915,-90,-133.178913798433,-43.1789137984335,80,112,msl000298,v1,0.37040114402771,3.12232232093811,-30.6933975219727,18.6393547058106,2017
1,-40,1,1,0,0,PERTURBATION,0,ROTATION,1.195631980896,-90,-96.1661832180639,-6.16618321806391,80,113,msl000298,v1,0,0,0,0,2017
1,-40,1,1,0,1,PERTURBATION,0,ROTATION,0.311174869537354,-90,-45.1737055313248,44.8262944686753,80,114,msl000298,v1,0.195425748825073,3.8994927406311,50.3772068023682,19.3066024780273,2098
1,-35,1,1,0,0,PERTURBATION,0,ROTATION,0.638088941574097,-90,-96.7000334927283,-6.7000334927283,80,115,msl000298,v1,0,0,0,0,2098
1,-35,1,1,0,1,PERTURBATION,0,ROTATION,0.310611009597778,-90,-59.0135660764057,30.9864339235943,80,116,msl000298,v1,0.417447805404663,4.79347968101502,48.8758993148804,23.9773368835449,2175
1,25,1,1,0,0,PERTURBATION,0,ROTATION,0.456977128982544,-90,-93.9197440605169,-3.91974406051691,80,117,msl000298,v1,0,0,0,0,2175
1,25,1,1,0,1,PERTURBATION,0,ROTATION,0.139987945556641,-90,-115.854980689699,-25.8549806896991,80,118,msl000298,v1,0.0702202320098877,2.43013620376587,-21.1851167678833,18.6393547058106,2257
1,45,1,1,0,0,PERTURBATION,0,ROTATION,0.731736898422241,-90,-95.3115269931645,-5.31152699316446,80,119,msl000298,v1,0,0,0,0,2257
1,45,1,1,0,1,PERTURBATION,0,ROTATION,0.256433963775635,-90,-121.257641965839,-31.2576419658388,80,120,msl000298,v1,0.347730159759522,3.18774104118347,-34.5300722122192,25.3118324279785,2257
1,-60,1,1,0,0,PERTURBATION,0,ROTATION,0.405433893203735,-90,-99.0010586684116,-9.00105866841155,80,121,msl000298,v1,0,0,0,0,2257
1,-60,1,1,0,1,PERTURBATION,0,ROTATION,0.29742693901062,-90,-50.3204310869808,39.6795689130192,80,122,msl000298,v1,0.216230869293213,7.78425884246826,70.5614519119263,11.6332530975342,2257
1,55,1,1,0,0,PERTURBATION,0,ROTATION,0.607680082321167,-90,-95.3205920135672,-5.32059201356718,80,123,msl000298,v1,0,0,0,0,2257
1,55,1,1,0,1,PERTURBATION,0,ROTATION,0.186038970947266,-90,-107.132736535107,-17.1327365351074,80,124,msl000298,v1,0.243436574935913,3.87545561790466,-44.7056007385254,15.3031158447266,2257
1,-30,1,1,0,0,PERTURBATION,0,ROTATION,0.777815103530884,-90,-91.4304043446903,-1.43040434469026,80,125,msl000298,v1,0,0,0,0,2257
1,-30,1,1,0,1,PERTURBATION,0,ROTATION,0.370346069335938,-90,-63.5724265306828,26.4275734693172,80,126,msl000298,v1,0.287927865982056,3.36794281005859,27.5239706039429,15.9703636169434,2342
1,0,1,1,0,0,PERTURBATION,0,ROTATION,0.420378923416138,-90,-95.2081249331746,-5.20812493317456,80,127,msl000298,v1,0,0,0,0,2342
1,0,1,1,0,1,PERTURBATION,0,ROTATION,0.29645299911499,-90,-95.4965652351637,-5.49656523516366,80,128,msl000298,v1,0.921637296676636,2.47363042831421,0,13.3013725280762,2429
1,-55,1,1,0,0,PERTURBATION,0,ROTATION,0.498270034790039,-90,-96.9333915800321,-6.93339158003214,80,129,msl000298,v1,0,0,0,0,2429
1,-55,1,1,0,1,PERTURBATION,0,ROTATION,0.308032035827637,-90,-41.9460009414283,48.0539990585717,80,130,msl000298,v1,0.217669248580933,7.9777262210846,65.8907175064087,15.9703636169434,2514
1,-30,1,1,0,0,PERTURBATION,0,ROTATION,0.849979877471924,-90,-93.3685970975939,-3.36859709759391,80,131,msl000298,v1,0,0,0,0,2514
1,-30,1,1,0,1,PERTURBATION,0,ROTATION,0.275187969207764,-90,-56.8134197926657,33.1865802073343,80,132,msl000298,v1,0.224261283874512,4.80025029182434,37.3658752441406,20.9747219085693,2594
1,45,1,1,0,0,PERTURBATION,0,ROTATION,0.519310235977173,-90,-97.2149770523668,-7.21497705236675,80,133,msl000298,v1,0,0,0,0,2594
1,45,1,1,0,1,PERTURBATION,0,ROTATION,0.286556005477905,-90,-112.108701975487,-22.1087019754867,80,134,msl000298,v1,0.0160176753997803,3.19211769104004,-31.8610811233521,20.6410980224609,2594
1,40,1,1,0,0,PERTURBATION,0,ROTATION,0.560630798339844,-90,-93.266811306565,-3.26681130656498,80,135,msl000298,v1,0,0,0,0,2594
1,40,1,1,0,1,PERTURBATION,0,ROTATION,0.432707071304321,-90,-146.1822485635,-56.1822485634997,80,136,msl000298,v1,0.107008695602417,4.82693982124329,-39.2008066177368,16.9712352752686,2594
1,-35,1,1,0,0,PERTURBATION,0,ROTATION,0.396379947662354,-90,-94.7795607846943,-4.7795607846943,80,137,msl000298,v1,0,0,0,0,2594
1,-35,1,1,0,1,PERTURBATION,0,ROTATION,0.276731014251709,-90,-58.2119286973065,31.7880713026935,80,138,msl000298,v1,0.268503427505493,6.45261025428772,45.3728485107422,11.6332530975342,2683
1,25,1,1,0,0,PERTURBATION,0,ROTATION,0.59230899810791,-90,-98.3884223878312,-8.38842238783114,80,139,msl000298,v1,0,0,0,0,2683
1,25,1,1,0,1,PERTURBATION,0,ROTATION,0.341344833374023,-90,-113.603747109795,-23.6037471097946,80,140,msl000298,v1,0.271287202835083,4.69532537460327,-12.3440837860107,8.2970142364502,2775
1,-40,1,1,0,0,PERTURBATION,0,ROTATION,0.594708919525147,-90,-102.583143647967,-12.5831436479666,80,141,msl000298,v1,0,0,0,0,2775
1,-40,1,1,0,1,PERTURBATION,0,ROTATION,0.449333906173706,-90,-46.1102404068822,43.8897595931178,80,142,msl000298,v1,0.829603433609009,7.59769225120544,60.5527353286743,12.9677486419678,2863
1,-50,1,1,0,0,PERTURBATION,0,ROTATION,0.538962841033936,-90,-97.9292360878267,-7.92923608782665,80,143,msl000298,v1,0,0,0,0,2863
1,-50,1,1,0,1,PERTURBATION,0,ROTATION,0.449580907821655,-90,-50.9687888663329,39.0312111336671,80,144,msl000298,v1,0.299102783203125,5.57112884521484,60.0522994995117,10.9660053253174,2863
1,60,1,1,0,0,PERTURBATION,0,ROTATION,0.672450065612793,-90,-97.6120468933213,-7.61204689332131,80,145,msl000298,v1,0,0,0,0,2863
1,60,1,1,0,1,PERTURBATION,0,ROTATION,0.255607843399048,-90,-141.004920175447,-51.0049201754468,80,146,msl000298,v1,0.32433819770813,4.5244300365448,-48.3754634857178,23.6437129974365,2940
1,15,1,1,0,0,PERTURBATION,0,ROTATION,0.558042049407959,-90,-95.1694325847021,-5.16943258470207,80,147,msl000298,v1,0,0,0,0,2940
1,15,1,1,0,1,PERTURBATION,0,ROTATION,0.355803966522217,-90,-105.623076013611,-15.6230760136107,80,148,msl000298,v1,0.458687782287598,3.22665667533875,-11.1764001846314,1,3039
1,-25,1,1,0,0,PERTURBATION,0,ROTATION,0.915562152862549,-90,-98.458751150741,-8.45875115074102,80,149,msl000298,v1,0,0,0,0,3039
1,-25,1,1,0,1,PERTURBATION,0,ROTATION,0.233716011047363,-90,-81.2403316783116,8.75966832168837,80,150,msl000298,v1,0.473731994628906,3.64971113204956,25.1886034011841,10.9660053253174,3039
1,20,1,1,0,0,PERTURBATION,0,ROTATION,0.616506099700928,-90,-95.0651125044825,-5.06511250448246,80,151,msl000298,v1,0,0,0,0,3039
1,20,1,1,0,1,PERTURBATION,0,ROTATION,0.147706985473633,-90,-113.764860563301,-23.7648605633012,80,152,msl000298,v1,0.21063494682312,5.31465888023377,-17.0148181915283,1,3039
1,-15,1,1,0,0,PERTURBATION,0,ROTATION,0.86321496963501,-90,-98.742049302607,-8.742049302607,80,153,msl000298,v1,0,0,0,0,3039
1,-15,1,1,0,1,PERTURBATION,0,ROTATION,0.380721092224121,-90,-74.1302534637838,15.8697465362163,80,154,msl000298,v1,0.205902814865112,3.45393180847168,22.8532361984253,1,3138
1,30,1,1,0,0,PERTURBATION,0,ROTATION,0.761197090148926,-90,-95.5718826660122,-5.57188266601222,80,155,msl000298,v1,0,0,0,0,3138
1,30,1,1,0,1,PERTURBATION,0,ROTATION,0.314783096313477,-90,-108.419566118158,-18.4195661181583,80,156,msl000298,v1,0.31727409362793,4.37330102920532,-19.8506212234497,5.96164703369141,3138
1,50,1,1,0,0,PERTURBATION,0,ROTATION,1.74510812759399,-90,-98.4783557838742,-8.47835578387421,80,157,msl000298,v1,0,0,0,0,3138
1,50,1,1,0,1,PERTURBATION,0,ROTATION,0.25676703453064,-90,-128.450633513833,-38.4506335138334,80,158,msl000298,v1,0.0922584533691406,3.80433750152588,-39.367618560791,19.9738502502441,3138
1,-60,1,1,0,0,PERTURBATION,0,ROTATION,1.34779500961304,-90,-98.9751589794849,-8.97515897948493,80,159,msl000298,v1,0,0,0,0,3138
1,-60,1,1,0,1,PERTURBATION,0,ROTATION,0.425217151641846,-90,-14.7829356953102,75.2170643046898,80,160,msl000298,v1,0.600356578826904,6.29639649391174,76.233057975769,16.3039875030518,3138
1,55,1,1,0,0,PERTURBATION,0,ROTATION,0.542371988296509,-90,-98.7824554976384,-8.78245549763837,80,161,msl000298,v1,0,0,0,0,3138
1,55,1,1,0,1,PERTURBATION,0,ROTATION,0.415554046630859,-90,-112.650158931708,-22.6501589317077,80,162,msl000298,v1,0.248251676559448,3.44824576377869,-36.6986274719238,21.3083457946777,3138
1,35,1,1,0,0,PERTURBATION,0,ROTATION,0.71867299079895,-90,-98.4927111397283,-8.49271113972831,80,163,msl000298,v1,0,0,0,0,3138
1,35,1,1,0,1,PERTURBATION,0,ROTATION,0.361606121063232,-90,-118.803117592353,-28.8031175923525,80,164,msl000298,v1,0.129518985748291,2.98552513122559,-23.6872959136963,12.300500869751,3138
1,-45,1,1,0,0,PERTURBATION,0,ROTATION,1.1705539226532,-90,-98.5584199158938,-8.55841991589379,80,165,msl000298,v1,0,0,0,0,3138
1,-45,1,1,0,1,PERTURBATION,0,ROTATION,0.445155143737793,-90,-35.0612834475178,54.9387165524822,80,166,msl000298,v1,0.080610990524292,5.49664115905762,67.8924608230591,19.6402263641357,3138
1,-20,1,1,0,0,PERTURBATION,0,ROTATION,1.08450293540955,-90,-102.292995158977,-12.2929951589773,80,167,msl000298,v1,0,0,0,0,3138
1,-20,1,1,0,1,PERTURBATION,0,ROTATION,0.619168043136597,-90,-58.2293768609367,31.7706231390633,80,168,msl000298,v1,0.191508769989014,3.28755760192871,34.0296363830566,10.9660053253174,3138
1,50,1,1,0,0,PERTURBATION,0,ROTATION,0.844023942947388,-90,-96.8818039715216,-6.88180397152161,80,169,msl000298,v1,0,0,0,0,3138
1,50,1,1,0,1,PERTURBATION,0,ROTATION,0.248207092285156,-90,-123.183413333601,-33.1834133336013,80,170,msl000298,v1,0.57164478302002,3.61177062988281,-22.6864242553711,18.6393547058106,3138
1,35,1,1,0,0,PERTURBATION,0,ROTATION,0.644816875457764,-90,-103.531490189347,-13.531490189347,80,171,msl000298,v1,0,0,0,0,3138
1,35,1,1,0,1,PERTURBATION,0,ROTATION,0.371392011642456,-90,-121.411656410162,-31.4116564101618,80,172,msl000298,v1,0.462672710418701,3.11866283416748,-20.6846809387207,11.6332530975342,3227
1,-20,1,1,0,0,PERTURBATION,0,ROTATION,0.967265844345093,-90,-103.480283169736,-13.4802831697358,80,173,msl000298,v1,0,0,0,0,3227
1,-20,1,1,0,1,PERTURBATION,0,ROTATION,0.428822994232178,-90,-71.6950440090893,18.3049559909107,80,174,msl000298,v1,0.7942795753479,4.19429063796997,36.5318155288696,9.96513366699219,3318
1,-50,1,1,0,0,PERTURBATION,0,ROTATION,0.55341911315918,-90,-99.025735568091,-9.02573556809101,80,175,msl000298,v1,0,0,0,0,3318
1,-50,1,1,0,1,PERTURBATION,0,ROTATION,0.269695997238159,-90,-47.0898056143483,42.9101943856517,80,176,msl000298,v1,0.45660662651062,4.45662951469421,54.7143173217773,16.3039875030518,3402
1,55,1,1,0,0,PERTURBATION,0,ROTATION,0.540313959121704,-90,-94.5297346283047,-4.52973462830472,80,177,msl000298,v1,0,0,0,0,3402
1,55,1,1,0,1,PERTURBATION,0,ROTATION,0.398648023605347,-90,-150.073116082052,-60.0731160820517,80,178,msl000298,v1,0.425037622451782,4.38499760627747,-56.8828725814819,18.6393547058106,3484
1,-30,1,1,0,0,PERTURBATION,0,ROTATION,0.584955930709839,-90,-97.4972326818497,-7.49723268184974,80,179,msl000298,v1,0,0,0,0,3484
1,-30,1,1,0,1,PERTURBATION,0,ROTATION,0.28546404838562,-90,-53.3151733330572,36.6848266669428,80,180,msl000298,v1,0.00805163383483887,3.51205658912659,35.8645677566528,6.6288948059082,3484
1,-15,1,1,0,0,PERTURBATION,0,ROTATION,0.836653232574463,-90,-95.7097835077646,-5.70978350776456,80,181,msl000298,v1,0,0,0,0,3484
1,-15,1,1,0,1,PERTURBATION,0,ROTATION,0.0818819999694824,-90,-38.2759164672808,51.7240835327192,80,182,msl000298,v1,-0.0034325122833252,3.44458150863648,22.0191764831543,92.3702335357666,3492
1,25,1,1,0,0,PERTURBATION,0,ROTATION,0.486923217773438,-90,-95.9941482827559,-5.99414828275586,80,183,msl000298,v1,0,0,0,0,3492
1,25,1,1,0,1,PERTURBATION,0,ROTATION,0.284610986709595,-90,-111.225345723593,-21.2253457235935,80,184,msl000298,v1,0.790578126907349,2.39062523841858,-16.3475704193115,30.9834384918213,3562
1,30,1,1,0,0,PERTURBATION,0,ROTATION,0.492558002471924,-90,-100.07095108035,-10.0709510803499,80,185,msl000298,v1,0,0,0,0,3562
1,30,1,1,0,1,PERTURBATION,0,ROTATION,0.314799070358276,-90,-113.356737092277,-23.3567370922766,80,186,msl000298,v1,0.511601209640503,2.7596173286438,-18.0156898498535,14.9694919586182,3648
1,-60,1,1,0,0,PERTURBATION,0,ROTATION,0.571899890899658,-90,-98.8313997107005,-8.83139971070045,80,187,msl000298,v1,0,0,0,0,3648
1,-60,1,1,0,1,PERTURBATION,0,ROTATION,0.291672945022583,-90,-15.3231499398912,74.6768500601089,80,188,msl000298,v1,0.310051202774048,5.59009122848511,73.7308788299561,41.3257789611816,3707
1,0,1,1,0,0,PERTURBATION,0,ROTATION,0.700057029724121,-90,-93.3488825262323,-3.3488825262323,80,189,msl000298,v1,0,0,0,0,3707
1,0,1,1,0,1,PERTURBATION,0,ROTATION,0.38398003578186,-90,-86.0860302730672,3.91396972693282,80,190,msl000298,v1,0.397018909454346,2.30106711387634,3.50305080413818,22.3092174530029,3785
1,20,1,1,0,0,PERTURBATION,0,ROTATION,0.383563995361328,-90,-97.9202538757392,-7.92025387573922,80,191,msl000298,v1,0,0,0,0,3785
1,20,1,1,0,1,PERTURBATION,0,ROTATION,0.349900960922241,-90,-107.578949363317,-17.5789493633173,80,192,msl000298,v1,0.487488031387329,2.58350205421448,-12.3440837860107,31.9843101501465,3854
1,-45,1,1,0,0,PERTURBATION,0,ROTATION,0.525928020477295,-90,-99.5989809784174,-9.5989809784174,80,193,msl000298,v1,0,0,0,0,3854
1,-45,1,1,0,1,PERTURBATION,0,ROTATION,0.293308973312378,-90,-26.6332541209709,63.3667458790292,80,194,msl000298,v1,0.103337526321411,5.19136548042297,65.8907175064087,38.6567878723145,3916
1,-40,1,1,0,0,PERTURBATION,0,ROTATION,0.544289112091065,-90,-100.376449393204,-10.3764493932037,80,195,msl000298,v1,0,0,0,0,3916
1,-40,1,1,0,1,PERTURBATION,0,ROTATION,0.293120861053467,-90,-41.4179945558158,48.5820054441842,80,196,msl000298,v1,0.243345022201538,4.60337805747986,56.7160606384277,8.2970142364502,3916
1,60,1,1,0,0,PERTURBATION,0,ROTATION,0.597465991973877,-90,-97.3557360326265,-7.35573603262654,80,197,msl000298,v1,0,0,0,0,3916
1,60,1,1,0,1,PERTURBATION,0,ROTATION,0.227736949920654,-90,-148.800843856603,-58.8008438566035,80,198,msl000298,v1,0.166260480880737,3.4622974395752,-46.87415599823,32.6515579223633,3984
1,15,1,1,0,0,PERTURBATION,0,ROTATION,1.00995683670044,-90,-96.4380282387966,-6.43802823879661,80,199,msl000298,v1,0,0,0,0,3984
1,15,1,1,0,1,PERTURBATION,0,ROTATION,0.332776069641113,-90,-105.834747481395,-15.8347474813954,80,200,msl000298,v1,0.253516674041748,1.58151578903198,-3.33623886108398,22.3092174530029,4062
1,-25,1,1,0,0,PERTURBATION,0,ROTATION,0.556609153747559,-90,-102.398395713744,-12.3983957137443,80,201,msl000298,v1,0,0,0,0,4062
1,-25,1,1,0,1,PERTURBATION,0,ROTATION,0.365600824356079,-90,-41.5323765843052,48.4676234156948,80,202,msl000298,v1,0.639551162719727,4.47959232330322,49.376335144043,33.9860534667969,4062
1,40,1,1,0,0,PERTURBATION,0,ROTATION,1.26198601722717,-90,-99.9141802504806,-9.91418025048057,80,203,msl000298,v1,0,0,0,0,4062
1,40,1,1,0,1,PERTURBATION,0,ROTATION,0.480975866317749,-90,-128.606707454042,-38.6067074540424,80,204,msl000298,v1,0.175965547561646,3.06403470039368,-25.6890392303467,4.62715148925781,4158
1,45,1,1,0,0,PERTURBATION,0,ROTATION,1.35151696205139,-90,-100.268809578138,-10.2688095781383,80,205,msl000298,v1,0,0,0,0,4158
1,45,1,1,0,1,PERTURBATION,0,ROTATION,0.392698049545288,-90,-139.320545151845,-49.320545151845,80,206,msl000298,v1,0.422072649002075,3.11810350418091,-30.3597736358643,21.6419696807861,4237
1,-55,1,1,0,0,PERTURBATION,0,ROTATION,0.795197010040283,-90,-95.4739575339731,-5.47395753397314,80,207,msl000298,v1,0,0,0,0,4237
1,-55,1,1,0,1,PERTURBATION,0,ROTATION,0.378188133239746,-90,-29.207460174505,60.792539825495,80,208,msl000298,v1,0.242208480834961,6.49021744728088,61.8872308731079,10.632381439209,4327
1,-35,1,1,0,0,PERTURBATION,0,ROTATION,0.711887836456299,-90,-98.5110106796828,-8.5110106796828,80,209,msl000298,v1,0,0,0,0,4327
1,-35,1,1,0,1,PERTURBATION,0,ROTATION,0.297672033309937,-90,-52.8076140660794,37.1923859339206,80,210,msl000298,v1,0.182664394378662,3.3826584815979,33.529200553894,14.9694919586182,4413
1,15,1,1,0,0,PERTURBATION,0,ROTATION,0.453651905059815,-90,-97.5069417878639,-7.50694178786391,80,211,msl000298,v1,0,0,0,0,4413
1,15,1,1,0,1,PERTURBATION,0,ROTATION,0.194126129150391,-90,-106.311016210293,-16.3110162102934,80,212,msl000298,v1,0.264864921569824,1.56085896492004,-2.33536720275879,29.6489429473877,4484
1,-50,1,1,0,0,PERTURBATION,0,ROTATION,0.570909976959229,-90,-94.3379811426128,-4.33798114261279,80,213,msl000298,v1,0,0,0,0,4484
1,-50,1,1,0,1,PERTURBATION,0,ROTATION,0.291355133056641,-90,-23.624293457254,66.375706542746,80,214,msl000298,v1,0.0617547035217285,4.68580269813538,60.7195472717285,29.9825668334961,4484
1,-30,1,1,0,0,PERTURBATION,0,ROTATION,0.534611940383911,-90,-93.4987273980145,-3.49872739801448,80,215,msl000298,v1,0,0,0,0,4484
1,-30,1,1,0,1,PERTURBATION,0,ROTATION,0.150046110153198,-90,-55.1860357536577,34.8139642463423,80,216,msl000298,v1,0.244574069976807,2.82857918739319,25.0217914581299,15.3031158447266,4569
1,45,1,1,0,0,PERTURBATION,0,ROTATION,0.609984874725342,-90,-94.0020379721311,-4.00203797213111,80,217,msl000298,v1,0,0,0,0,4569
1,45,1,1,0,1,PERTURBATION,0,ROTATION,0.220668077468872,-90,-147.146690106617,-57.1466901066172,80,218,msl000298,v1,0.438070058822632,4.48615026473999,-37.3658752441406,16.9712352752686,4569
1,-55,1,1,0,0,PERTURBATION,0,ROTATION,0.448145866394043,-90,-98.6159600348002,-8.61596003480018,80,219,msl000298,v1,0,0,0,0,4569
1,-55,1,1,0,1,PERTURBATION,0,ROTATION,0.334588050842285,-90,-29.5938001536758,60.4061998463243,80,220,msl000298,v1,0.141849517822266,4.70196652412415,61.5536069869995,8.2970142364502,4569
1,50,1,1,0,0,PERTURBATION,0,ROTATION,0.487122058868408,-90,-90.2508871113519,-0.250887111351886,80,221,msl000298,v1,0,0,0,0,4569
1,50,1,1,0,1,PERTURBATION,0,ROTATION,0.269282102584839,-90,-115.661188788683,-25.6611887886832,80,222,msl000298,v1,0.28948187828064,3.70555973052979,-42.2034215927124,11.6332530975342,4569
1,30,1,1,0,0,PERTURBATION,0,ROTATION,0.571820020675659,-90,-98.6694221960524,-8.66942219605238,80,223,msl000298,v1,0,0,0,0,4569
1,30,1,1,0,1,PERTURBATION,0,ROTATION,0.374143838882446,-90,-122.028462810964,-32.0284628109644,80,224,msl000298,v1,0.128552436828613,4.27262353897095,-18.5161256790161,5.29439926147461,4664
1,-45,1,1,0,0,PERTURBATION,0,ROTATION,0.921715974807739,-90,-95.4849787007968,-5.48497870079677,80,225,msl000298,v1,0,0,0,0,4664
1,-45,1,1,0,1,PERTURBATION,0,ROTATION,0.407902956008911,-90,-40.0238364341692,49.9761635658308,80,226,msl000298,v1,0.547496557235718,5.28353261947632,45.3728485107422,14.9694919586182,4750
1,40,1,1,0,0,PERTURBATION,0,ROTATION,0.495022058486939,-90,-98.7585583143309,-8.75855831433087,80,227,msl000298,v1,0,0,0,0,4750
1,40,1,1,0,1,PERTURBATION,0,ROTATION,0.360737800598145,-90,-125.486260242476,-35.4862602424757,80,228,msl000298,v1,0.536759376525879,4.08886432647705,-25.3554153442383,11.6332530975342,4839
1,55,1,1,0,0,PERTURBATION,0,ROTATION,0.479830026626587,-90,-99.5648186877223,-9.56481868772232,80,229,msl000298,v1,0,0,0,0,4839
1,55,1,1,0,1,PERTURBATION,0,ROTATION,0.401618003845215,-90,-129.071677891587,-39.0716778915874,80,230,msl000298,v1,0.228004217147827,5.0280282497406,-36.3650035858154,11.2996292114258,4839
1,-15,1,1,0,0,PERTURBATION,0,ROTATION,0.562587976455689,-90,-99.4441206815693,-9.44412068156932,80,231,msl000298,v1,0,0,0,0,4839
1,-15,1,1,0,1,PERTURBATION,0,ROTATION,0.318120002746582,-90,-85.1807851916203,4.81921480837968,80,232,msl000298,v1,0.467849969863892,3.63588094711304,20.6846809387207,12.300500869751,4839
1,-25,1,1,0,0,PERTURBATION,0,ROTATION,0.592894077301025,-90,-98.9152451683222,-8.9152451683222,80,233,msl000298,v1,0,0,0,0,4839
1,-25,1,1,0,1,PERTURBATION,0,ROTATION,0.154935121536255,-90,-62.337043323442,27.662956676558,80,234,msl000298,v1,0.470486879348755,3.24649286270142,30.3597736358643,21.3083457946777,4918
1,60,1,1,0,0,PERTURBATION,0,ROTATION,0.838657140731812,-90,-97.2876245779812,-7.28762457798119,80,235,msl000298,v1,0,0,0,0,4918
1,60,1,1,0,1,PERTURBATION,0,ROTATION,0.396605014801025,-90,-154.022275324027,-64.0222753240273,80,236,msl000298,v1,0.00590753555297852,5.8539617061615,-52.3789501190186,12.300500869751,5006
1,-60,1,1,0,0,PERTURBATION,0,ROTATION,0.468397855758667,-90,-98.454467192368,-8.45446719236797,80,237,msl000298,v1,0,0,0,0,5006
1,-60,1,1,0,1,PERTURBATION,0,ROTATION,0.343625068664551,-90,-14.354136931913,75.645863068087,80,238,msl000298,v1,0.0773246288299561,5.20546054840088,76.9003057479858,31.3170623779297,5006
1,25,1,1,0,0,PERTURBATION,0,ROTATION,0.421619176864624,-90,-102.012721262535,-12.0127212625348,80,239,msl000298,v1,0,0,0,0,5006
1,25,1,1,0,1,PERTURBATION,0,ROTATION,0.203037977218628,-90,-123.565737280117,-33.5657372801165,80,240,msl000298,v1,0.00478339195251465,3.12484121322632,-12.1772718429565,12.300500869751,5094
1,35,1,1,0,0,PERTURBATION,0,ROTATION,0.894667863845825,-90,-99.5987548087566,-9.59875480875664,80,241,msl000298,v1,0,0,0,0,5094
1,35,1,1,0,1,PERTURBATION,0,ROTATION,0.316586017608643,-90,-121.062794614591,-31.0627946145911,80,242,msl000298,v1,0.54256010055542,4.19058918952942,-20.6846809387207,8.96426200866699,5186
1,-20,1,1,0,0,PERTURBATION,0,ROTATION,0.433273077011108,-90,-101.834680254002,-11.8346802540022,80,243,msl000298,v1,0,0,0,0,5186
1,-20,1,1,0,1,PERTURBATION,0,ROTATION,0.348777055740356,-90,-58.1518990109634,31.8481009890366,80,244,msl000298,v1,0.180338382720947,3.51640033721924,26.8567228317261,9.96513366699219,5186
1,20,1,1,0,0,PERTURBATION,0,ROTATION,0.41186785697937,-90,-101.685833097252,-11.6858330972516,80,245,msl000298,v1,0,0,0,0,5186
1,20,1,1,0,1,PERTURBATION,0,ROTATION,0.297358989715576,-90,-114.46854444752,-24.4685444475197,80,246,msl000298,v1,0.136742353439331,2.33678841590881,-5.83841800689697,7.9633903503418,5279
1,-40,1,1,0,0,PERTURBATION,0,ROTATION,0.5363609790802,-90,-95.9462473982846,-5.94624739828456,80,247,msl000298,v1,0,0,0,0,5279
1,-40,1,1,0,1,PERTURBATION,0,ROTATION,0.348067998886108,-90,-33.0113433565595,56.9886566434405,80,248,msl000298,v1,0.0661182403564453,3.67416715621948,49.5431470870972,28.6480712890625,5279
1,-35,1,1,0,0,PERTURBATION,0,ROTATION,0.606534004211426,-90,-96.6037431110179,-6.60374311101789,80,249,msl000298,v1,0,0,0,0,5279
1,-35,1,1,0,1,PERTURBATION,0,ROTATION,0.253932952880859,-90,-48.485400979261,41.514599020739,80,250,msl000298,v1,0.218839406967163,3.72286939620972,34.363260269165,7.9633903503418,5279
1,0,1,1,0,0,PERTURBATION,0,ROTATION,0.674710988998413,-90,-90.8859543124128,-0.885954312412792,80,251,msl000298,v1,0,0,0,0,5279
1,0,1,1,0,1,PERTURBATION,0,ROTATION,0.324656009674072,-90,-95.9352922351109,-5.93529223511085,80,252,msl000298,v1,0.539329051971436,2.32333207130432,0,1,5279
1,30,1,1,0,0,PERTURBATION,0,ROTATION,0.525325059890747,-90,-91.8421645371569,-1.8421645371569,80,1,msl000308,v1,0,0,0,0,0
1,30,1,1,0,1,PERTURBATION,0,ROTATION,0.196655035018921,-90,-61.024151025773,28.975848974227,80,2,msl000308,v1,1.95375394821167,5.26574087142944,13.0112869262696,50,0
1,-15,1,1,0,0,PERTURBATION,0,ROTATION,0.987529993057251,-90,-93.6560725335255,-3.6560725335255,80,3,msl000308,v1,0,0,0,0,0
1,-15,1,1,0,1,PERTURBATION,0,ROTATION,0.593016147613525,-90,-67.6287006432718,22.3712993567282,80,4,msl000308,v1,0.573088884353638,4.35698890686035,11.0095504760742,37.3223358154298,63
1,25,1,1,0,0,PERTURBATION,0,ROTATION,0.631758213043213,-90,-92.906511970796,-2.906511970796,80,5,msl000308,v1,0,0,0,0,63
1,25,1,1,0,1,PERTURBATION,0,ROTATION,0.199197053909302,-90,-113.855975625852,-23.8559756258521,80,6,msl000308,v1,0.475784540176392,3.93173360824585,-15.0130233764649,36.9887130737306,127
1,35,1,1,0,0,PERTURBATION,0,ROTATION,0.908908128738403,-90,-97.7404373492263,-7.7404373492263,80,7,msl000308,v1,0,0,0,0,127
1,35,1,1,0,1,PERTURBATION,0,ROTATION,0.243029832839966,-90,-129.292151884546,-39.2921518845459,80,8,msl000308,v1,0.330170631408691,5.21814370155335,-23.3535919189453,34.3197311401369,193
1,-20,1,1,0,0,PERTURBATION,0,ROTATION,1.01941919326782,-90,-99.0457798223109,-9.04577982231093,80,9,msl000308,v1,0,0,0,0,193
1,-20,1,1,0,1,PERTURBATION,0,ROTATION,0.830116987228394,-90,-54.7728814250978,35.2271185749022,80,10,msl000308,v1,0.639257192611694,7.1832902431488,36.8653129577635,39.6576950073243,254
1,60,1,1,0,0,PERTURBATION,0,ROTATION,0.493513107299805,-90,-98.6375776198627,-8.6375776198627,80,11,msl000308,v1,0,0,0,0,254
1,60,1,1,0,1,PERTURBATION,0,ROTATION,0.151911020278931,-90,-130.631100719687,-40.6311007196872,80,12,msl000308,v1,0.494373798370361,5.03033876419067,-38.5334266662596,35.9878448486329,254
1,40,1,1,0,0,PERTURBATION,0,ROTATION,0.570268869400024,-90,-104.221459203384,-14.2214592033844,80,13,msl000308,v1,0,0,0,0,254
1,40,1,1,0,1,PERTURBATION,0,ROTATION,0.784643888473511,-90,-117.057546437705,-27.057546437705,80,14,msl000308,v1,0.482377767562866,3.50638675689697,-17.3483825683594,34.9869766235353,320
1,-55,1,1,0,0,PERTURBATION,0,ROTATION,0.639782190322876,-90,-103.761074959264,-13.7610749592638,80,15,msl000308,v1,0,0,0,0,320
1,-55,1,1,0,1,PERTURBATION,1,ROTATION,1.68373107910156,-90,-20.9259424049807,69.0740575950193,80,16,msl000308,v1,0.402030229568481,8.18614721298218,62.5542640686032,42.9939224243165,320
1,-25,1,1,0,0,PERTURBATION,0,ROTATION,0.588827133178711,-90,-103.42240526485,-13.4224052648497,80,17,msl000308,v1,0,0,0,0,320
1,-25,1,1,0,1,PERTURBATION,0,ROTATION,0.620187997817993,-90,-44.4694191313336,45.5305808686665,80,18,msl000308,v1,0.471949100494385,6.59191393852234,39.200672149658,39.9913177490235,320
1,0,1,1,0,0,PERTURBATION,0,ROTATION,0.463726997375488,-90,-99.8742748981813,-9.87427489818134,80,19,msl000308,v1,0,0,0,0,320
1,0,1,1,0,1,PERTURBATION,0,ROTATION,1.32245206832886,-90,-71.0559790220462,18.9440209779538,80,20,msl000308,v1,0.425703048706055,4.56164503097534,7.0060775756836,39.3240722656251,381
1,55,1,1,0,0,PERTURBATION,0,ROTATION,0.743525981903076,-90,-100.155535626426,-10.1555356264264,80,21,msl000308,v1,0,0,0,0,381
1,55,1,1,0,1,PERTURBATION,0,ROTATION,0.388863086700439,-90,-142.07302738784,-52.0730273878399,80,22,msl000308,v1,0.908912658691406,7.86097884178162,-35.1971992492674,42.9939224243165,439
1,-40,1,1,0,0,PERTURBATION,0,ROTATION,0.45502495765686,-90,-100.898418101229,-10.898418101229,80,23,msl000308,v1,0,0,0,0,439
1,-40,1,1,0,1,PERTURBATION,0,ROTATION,0.849838018417358,-90,-41.8102155255821,48.1897844744179,80,24,msl000308,v1,0.255377531051636,5.30341053009033,46.7071838378904,40.658563232422,499
1,-35,1,1,0,0,PERTURBATION,0,ROTATION,0.745774030685425,-90,-99.2466448898629,-9.24664488986289,80,25,msl000308,v1,0,0,0,0,499
1,-35,1,1,0,1,PERTURBATION,0,ROTATION,0.211068153381348,-90,-39.5472878650758,50.4527121349242,80,26,msl000308,v1,0.329319715499878,5.51335573196411,40.2015403747557,36.3214675903322,563
1,45,1,1,0,0,PERTURBATION,0,ROTATION,0.675903081893921,-90,-98.81236791619,-8.81236791618996,80,27,msl000308,v1,0,0,0,0,563
1,45,1,1,0,1,PERTURBATION,0,ROTATION,0.571111917495728,-90,-134.031448944383,-44.0314489443834,80,28,msl000308,v1,0.811748266220093,7.06767416000366,-31.6941604614257,35.9878448486329,628
1,-50,1,1,0,0,PERTURBATION,0,ROTATION,0.686076164245606,-90,-96.6128081331544,-6.61280813315445,80,29,msl000308,v1,0,0,0,0,628
1,-50,1,1,0,1,PERTURBATION,0,ROTATION,0.389768838882446,-90,-41.7678467744876,48.2321532255125,80,30,msl000308,v1,0.809409618377686,7.65742373466492,44.8722587585447,34.9869766235353,694
1,-45,1,1,0,0,PERTURBATION,0,ROTATION,0.492591142654419,-90,-98.6968347686544,-8.69683476865443,80,31,msl000308,v1,0,0,0,0,694
1,-45,1,1,0,1,PERTURBATION,0,ROTATION,0.608564138412476,-90,-29.528863271656,60.471136728344,80,32,msl000308,v1,0.478061676025391,10.3181326389313,51.7115249633786,22.9765579223634,694
1,15,1,1,0,0,PERTURBATION,0,ROTATION,0.599795818328857,-90,-101.878911913616,-11.8789119136163,80,33,msl000308,v1,0,0,0,0,694
1,15,1,1,0,1,PERTURBATION,0,ROTATION,0.773576021194458,-90,-102.251038111324,-12.251038111324,80,34,msl000308,v1,0.771072626113892,5.32313370704651,-1.8349250793457,16.6377258300782,778
1,-60,1,1,0,0,PERTURBATION,0,ROTATION,0.553160905838013,-90,-91.7801028409259,-1.78010284092593,80,35,msl000308,v1,0,0,0,0,778
1,-60,1,1,0,1,PERTURBATION,0,ROTATION,1.0141270160675,-90,-30.228097607712,59.7719023922881,80,36,msl000308,v1,0.292248010635376,5.61225008964539,57.7167343139645,37.655958557129,841
1,50,1,1,0,0,PERTURBATION,0,ROTATION,0.57726001739502,-90,-97.7626806532152,-7.76268065321517,80,37,msl000308,v1,0,0,0,0,841
1,50,1,1,0,1,PERTURBATION,0,ROTATION,0.206567049026489,-90,-124.952858072694,-34.9528580726935,80,38,msl000308,v1,0.430299997329712,6.43028402328491,-29.85923538208,34.3197311401369,907
1,-30,1,1,0,0,PERTURBATION,0,ROTATION,0.895593881607056,-90,-98.8614142032329,-8.8614142032329,80,39,msl000308,v1,0,0,0,0,907
1,-30,1,1,0,1,PERTURBATION,0,ROTATION,0.751877069473267,-90,-39.7771772658194,50.2228227341806,80,40,msl000308,v1,1.09910130500794,6.29909133911133,36.8653129577635,30.6498809814455,907
1,20,1,1,0,0,PERTURBATION,0,ROTATION,0.886145114898682,-90,-104.894759913296,-14.8947599132961,80,41,msl000308,v1,0,0,0,0,907
1,20,1,1,0,1,PERTURBATION,0,ROTATION,1.12287187576294,-90,-103.466224161955,-13.4662241619549,80,42,msl000308,v1,0.480896949768066,6.21690201759338,-5.67158660888672,23.6438034057619,984
1,-60,1,1,0,0,PERTURBATION,0,ROTATION,0.786818027496338,-90,-104.243137137736,-14.2431371377357,80,43,msl000308,v1,0,0,0,0,984
1,-60,1,1,0,1,PERTURBATION,0,ROTATION,0.813214063644409,-90,-25.9140836304056,64.0859163695944,80,44,msl000308,v1,0.738188028335571,6.50623202323914,65.5568687438962,50,1034
1,35,1,1,0,0,PERTURBATION,0,ROTATION,0.710862874984741,-90,-105.480561430543,-15.480561430543,80,45,msl000308,v1,0,0,0,0,1034
1,35,1,1,0,1,PERTURBATION,0,ROTATION,1.06005692481995,-90,-125.773962174383,-35.7739621743828,80,46,msl000308,v1,0.839632034301758,5.93558192253113,-17.515193939209,16.304103088379,1118
1,-30,1,1,0,0,PERTURBATION,0,ROTATION,0.849764108657837,-90,-99.5162832696256,-9.51628326962555,80,47,msl000308,v1,0,0,0,0,1118
1,-30,1,1,0,1,PERTURBATION,0,ROTATION,0.66388201713562,-90,-35.2879927145775,54.7120072854225,80,48,msl000308,v1,0.457388639450073,6.05742263793945,38.0329925537108,25.6455398559572,1118
1,-40,1,1,0,0,PERTURBATION,0,ROTATION,0.535153150558472,-90,-99.7998413447866,-9.79984134478656,80,49,msl000308,v1,0,0,0,0,1118
1,-40,1,1,0,1,PERTURBATION,0,ROTATION,0.592660903930664,-90,-27.4203917827536,62.5796082172464,80,50,msl000308,v1,0.165122747421265,5.37308073043823,44.7054473876951,29.6490127563478,1118
1,25,1,1,0,0,PERTURBATION,0,ROTATION,0.487973928451538,-90,-99.3722022697969,-9.37220226979693,80,51,msl000308,v1,0,0,0,0,1118
1,25,1,1,0,1,PERTURBATION,0,ROTATION,0.357433080673218,-90,-128.87157835884,-38.8715783588401,80,52,msl000308,v1,0.228512763977051,3.30852866172791,-14.512589263916,31.9843719482423,1187
1,55,1,1,0,0,PERTURBATION,0,ROTATION,0.705520153045654,-90,-103.257393766032,-13.2573937660322,80,53,msl000308,v1,0,0,0,0,1187
1,55,1,1,0,1,PERTURBATION,0,ROTATION,0.558072090148926,-90,-129.39786557328,-39.3978655732796,80,54,msl000308,v1,0.460058450698853,5.62804555892944,-24.1876487731933,27.3136535644533,1260
1,0,1,1,0,0,PERTURBATION,0,ROTATION,0.43812894821167,-90,-104.637901926833,-14.6379019268335,80,55,msl000308,v1,0,0,0,0,1260
1,0,1,1,0,1,PERTURBATION,0,ROTATION,1.23427200317383,-90,-84.5616346125429,5.43836538745713,80,56,msl000308,v1,0.287733316421509,4.61572933197022,8.34056854248048,34.9869766235353,1326
1,-45,1,1,0,0,PERTURBATION,0,ROTATION,0.615287065505981,-90,-97.3615124604672,-7.3615124604672,80,57,msl000308,v1,0,0,0,0,1326
1,-45,1,1,0,1,PERTURBATION,0,ROTATION,0.454101085662842,-90,-30.8236345979807,59.1763654020193,80,58,msl000308,v1,0.447352647781372,4.41539168357849,39.0338607788084,35.3205993652345,1391
1,45,1,1,0,0,PERTURBATION,0,ROTATION,0.599190950393677,-90,-104.231442096952,-14.2314420969517,80,59,msl000308,v1,0,0,0,0,1391
1,45,1,1,0,1,PERTURBATION,0,ROTATION,0.142493963241577,-90,-124.943564891314,-34.9435648913139,80,60,msl000308,v1,0.951384782791138,5.77542567253113,-23.1867805480957,35.3205993652345,1456
1,15,1,1,0,0,PERTURBATION,0,ROTATION,0.472126007080078,-90,-101.14757050969,-11.14757050969,80,61,msl000308,v1,0,0,0,0,1456
1,15,1,1,0,1,PERTURBATION,0,ROTATION,0.216913938522339,-90,-105.271266605778,-15.2712666057784,80,62,msl000308,v1,0.775813102722168,3.23175597190857,-2.83579330444336,31.9843719482423,1525
1,-20,1,1,0,0,PERTURBATION,0,ROTATION,0.579291105270386,-90,-101.035607894424,-11.0356078944235,80,63,msl000308,v1,0,0,0,0,1525
1,-20,1,1,0,1,PERTURBATION,0,ROTATION,0.241254091262817,-90,-68.0979559075225,21.9020440924775,80,64,msl000308,v1,0.439642667770386,7.23158359527588,17.8488166809082,23.3101806640626,1602
1,20,1,1,0,0,PERTURBATION,0,ROTATION,0.73851490020752,-90,-101.854885231407,-11.8548852314067,80,65,msl000308,v1,0,0,0,0,1602
1,20,1,1,0,1,PERTURBATION,0,ROTATION,0.216418027877808,-90,-105.685411982106,-15.6854119821055,80,66,msl000308,v1,0.325256109237671,3.30123019218445,-7.33970031738282,30.6498809814455,1672
1,-15,1,1,0,0,PERTURBATION,0,ROTATION,0.738744020462036,-90,-104.330489886011,-14.3304898860113,80,67,msl000308,v1,0,0,0,0,1672
1,-15,1,1,0,1,PERTURBATION,0,ROTATION,0.47885799407959,-90,-85.4879241723872,4.51207582761278,80,68,msl000308,v1,1.85734176635742,5.56925582885742,15.6802688598633,38.3232040405274,1734
1,30,1,1,0,0,PERTURBATION,0,ROTATION,0.6631760597229,-90,-107.888851374006,-17.8888513740062,80,69,msl000308,v1,0,0,0,0,1734
1,30,1,1,0,1,PERTURBATION,0,ROTATION,0.217978000640869,-90,-111.95762912102,-21.9576291210198,80,70,msl000308,v1,0.223580360412598,3.58352828025818,-7.84013442993165,27.6472763061525,1807
1,-55,1,1,0,0,PERTURBATION,0,ROTATION,0.835462093353272,-90,-95.3597458229656,-5.35974582296555,80,71,msl000308,v1,0,0,0,0,1807
1,-55,1,1,0,1,PERTURBATION,0,ROTATION,1.1950101852417,-90,-37.3260733850732,52.6739266149268,80,72,msl000308,v1,1.01759552955627,16.6817345619202,51.8783363342282,35.6542221069337,1872
1,-35,1,1,0,0,PERTURBATION,0,ROTATION,0.651249170303345,-90,-93.5488093784587,-3.54880937845867,80,73,msl000308,v1,0,0,0,0,1872
1,-35,1,1,0,1,PERTURBATION,0,ROTATION,0.668370008468628,-90,-62.1390555771331,27.8609444228669,80,74,msl000308,v1,0.781802654266357,5.61377859115601,28.6915557861327,26.6464080810548,1946
1,50,1,1,0,0,PERTURBATION,0,ROTATION,0.547490119934082,-90,-99.2452384282901,-9.24523842829009,80,75,msl000308,v1,0,0,0,0,1946
1,50,1,1,0,1,PERTURBATION,0,ROTATION,0.301620006561279,-90,-114.8990015722,-24.8990015721998,80,76,msl000308,v1,0.270538806915283,6.63854169845581,-24.1876487731933,37.3223358154298,1946
1,-25,1,1,0,0,PERTURBATION,0,ROTATION,1.2627260684967,-90,-95.1759369260348,-5.17593692603478,80,77,msl000308,v1,0,0,0,0,1946
1,-25,1,1,0,1,PERTURBATION,0,ROTATION,1.13147401809692,-90,-100.626961879393,-10.6269618793933,80,78,msl000308,v1,1.12298965454102,4.81093263626099,19.6837417602539,35.6542221069337,1946
1,60,1,1,0,0,PERTURBATION,0,ROTATION,0.562310934066773,-90,-95.6256465833298,-5.6256465833298,80,79,msl000308,v1,0,0,0,0,1946
1,60,1,1,0,1,PERTURBATION,0,ROTATION,1.0093948841095,-90,-143.082860176594,-53.0828601765937,80,80,msl000308,v1,0.331265449523926,6.45932745933533,-47.3744293212888,40.658563232422,2006
1,40,1,1,0,0,PERTURBATION,0,ROTATION,1.51395606994629,-90,-105.903962204792,-15.9039622047919,80,81,msl000308,v1,0,0,0,0,2006
1,40,1,1,0,1,PERTURBATION,0,ROTATION,0.608651876449585,-90,-129.691153884973,-39.6911538849728,80,82,msl000308,v1,0.234293699264526,3.65823078155518,-25.5221397399902,38.3232040405274,2068
1,-50,1,1,0,0,PERTURBATION,0,ROTATION,0.636596918106079,-90,-104.660037365366,-14.6600373653661,80,83,msl000308,v1,0,0,0,0,2068
1,-50,1,1,0,1,PERTURBATION,0,ROTATION,0.93346095085144,-90,-31.6426898730879,58.3573101269121,80,84,msl000308,v1,0.747814416885376,5.05175042152405,44.5386360168455,33.3188629150392,2135
1,15,1,1,0,0,PERTURBATION,0,ROTATION,0.875334024429321,-90,-104.647494855502,-14.647494855502,80,85,msl000308,v1,0,0,0,0,2135
1,15,1,1,0,1,PERTURBATION,0,ROTATION,0.714520931243897,-90,-101.7538563132,-11.7538563132004,80,86,msl000308,v1,1.05410575866699,2.60606384277344,0,19.6403305053712,2216
1,-45,1,1,0,0,PERTURBATION,0,ROTATION,0.593065977096558,-90,-96.6317908442194,-6.63179084421935,80,87,msl000308,v1,0,0,0,0,2216
1,-45,1,1,0,1,PERTURBATION,0,ROTATION,0.566140174865723,-90,-37.4379254308174,52.5620745691826,80,88,msl000308,v1,0.205251216888428,3.7732093334198,40.2015403747557,32.3179946899416,2284
1,25,1,1,0,0,PERTURBATION,0,ROTATION,0.558446168899536,-90,-101.57745097787,-11.5774509778698,80,89,msl000308,v1,0,0,0,0,2284
1,25,1,1,0,1,PERTURBATION,0,ROTATION,0.477406978607178,-90,-117.41520452881,-27.4152045288097,80,90,msl000308,v1,0.237377882003784,4.0374219417572,-12.1772300720215,32.3179946899416,2352
1,-15,1,1,0,0,PERTURBATION,0,ROTATION,0.466870069503784,-90,-99.5129715304541,-9.51297153045405,80,91,msl000308,v1,0,0,0,0,2352
1,-15,1,1,0,1,PERTURBATION,0,ROTATION,0.592667818069458,-90,-71.0119515996422,18.9880484003579,80,92,msl000308,v1,0.223653316497803,3.32761025428772,14.3457778930664,37.9895812988282,2415
1,-50,1,1,0,0,PERTURBATION,0,ROTATION,0.546446084976196,-90,-99.8059015296185,-9.80590152961851,80,93,msl000308,v1,0,0,0,0,2415
1,-50,1,1,0,1,PERTURBATION,0,ROTATION,0.996523857116699,-90,-32.1661864278699,57.8338135721301,80,94,msl000308,v1,1.00345849990845,6.50753855705261,42.3700881958006,33.9861083984376,2482
1,50,1,1,0,0,PERTURBATION,0,ROTATION,0.364676952362061,-90,-95.2720414392016,-5.27204143920154,80,95,msl000308,v1,0,0,0,0,2482
1,50,1,1,0,1,PERTURBATION,0,ROTATION,0.492756843566895,-90,-135.035039524841,-45.0350395248413,80,96,msl000308,v1,0.842576265335083,4.4745934009552,-33.8627082824706,31.6507492065431,2551
1,-40,1,1,0,0,PERTURBATION,0,ROTATION,0.417371034622192,-90,-99.1869526305717,-9.1869526305717,80,97,msl000308,v1,0,0,0,0,2551
1,-40,1,1,0,1,PERTURBATION,0,ROTATION,0.964016914367676,-90,-50.3573163426788,39.6426836573212,80,98,msl000308,v1,0.152548789978027,6.49661183357239,38.1998039245604,31.9843719482423,2620
1,35,1,1,0,0,PERTURBATION,0,ROTATION,0.421762943267822,-90,-100.477349706835,-10.4773497068353,80,99,msl000308,v1,0,0,0,0,2620
1,35,1,1,0,1,PERTURBATION,0,ROTATION,0.382481813430786,-90,-114.640334736069,-24.6403347360691,80,100,msl000308,v1,0.255168437957764,3.42316651344299,-16.5143257141114,29.982635498047,2691
1,20,1,1,0,0,PERTURBATION,0,ROTATION,0.374771118164063,-90,-105.093062852591,-15.0930628525906,80,101,msl000308,v1,0,0,0,0,2691
1,20,1,1,0,1,PERTURBATION,0,ROTATION,0.389057874679565,-90,-98.0320081371283,-8.03200813712832,80,102,msl000308,v1,0.569193601608276,3.11319160461426,-3.66985015869141,28.6481445312501,2763
1,-30,1,1,0,0,PERTURBATION,0,ROTATION,0.402209997177124,-90,-105.126010081364,-15.1260100813635,80,103,msl000308,v1,0,0,0,0,2763
1,-30,1,1,0,1,PERTURBATION,0,ROTATION,0.885069131851196,-90,-52.9629717003319,37.0370282996681,80,104,msl000308,v1,1.38568949699402,4.80974745750427,39.7011062622069,31.9843719482423,2832
1,45,1,1,0,0,PERTURBATION,0,ROTATION,0.337512016296387,-90,-100.280193196287,-10.2801931962868,80,105,msl000308,v1,0,0,0,0,2832
1,45,1,1,0,1,PERTURBATION,0,ROTATION,0.37054705619812,-90,-120.86176837389,-30.8617683738903,80,106,msl000308,v1,0.434489250183106,2.57053136825562,-19.6837417602539,30.9835037231447,2902
1,-20,1,1,0,0,PERTURBATION,0,ROTATION,0.711683034896851,-90,-98.6202832150573,-8.62028321505731,80,107,msl000308,v1,0,0,0,0,2902
1,-20,1,1,0,1,PERTURBATION,0,ROTATION,0.447868824005127,-90,-61.226167246656,28.773832753344,80,108,msl000308,v1,1.14158821105957,4.08570742607117,24.3544601440429,29.982635498047,2973
1,60,1,1,0,0,PERTURBATION,0,ROTATION,0.375483989715576,-90,-102.816070793319,-12.8160707933192,80,109,msl000308,v1,0,0,0,0,2973
1,60,1,1,0,1,PERTURBATION,0,ROTATION,0.559631109237671,-90,-138.783187979304,-48.7831879793038,80,110,msl000308,v1,0.00460386276245117,4.08462572097778,-35.1971992492674,30.6498809814455,3043
1,30,1,1,0,0,PERTURBATION,0,ROTATION,0.630716800689697,-90,-106.16992081791,-16.1699208179102,80,111,msl000308,v1,0,0,0,0,3043
1,30,1,1,0,1,PERTURBATION,0,ROTATION,0.095656156539917,-90,-122.978654881658,-32.9786548816584,80,112,msl000308,v1,1.43176436424255,4.21574950218201,-18.1824394226074,34.6533538818361,3109
1,-35,1,1,0,0,PERTURBATION,0,ROTATION,0.406322002410889,-90,-99.5109623633712,-9.51096236337121,80,113,msl000308,v1,0,0,0,0,3109
1,-35,1,1,0,1,PERTURBATION,0,ROTATION,0.0876920223236084,-90,-74.247066741676,15.752933258324,80,114,msl000308,v1,0.223289489746094,3.29528164863586,28.0243103027343,34.9869766235353,3109
1,55,1,1,0,0,PERTURBATION,0,ROTATION,0.43547797203064,-90,-103.496418114928,-13.4964181149285,80,115,msl000308,v1,0,0,0,0,3109
1,55,1,1,0,1,PERTURBATION,0,ROTATION,0.709739923477173,-90,-129.301944824336,-39.3019448243355,80,116,msl000308,v1,0.366499423980713,3.47055554389954,-29.1919898986816,32.98524017334,3177
1,-25,1,1,0,0,PERTURBATION,0,ROTATION,0.410233020782471,-90,-109.572261597885,-19.5722615978846,80,117,msl000308,v1,0,0,0,0,3177
1,-25,1,1,0,1,PERTURBATION,0,ROTATION,0.523566961288452,-90,-54.6391362445271,35.3608637554729,80,118,msl000308,v1,0.302893877029419,3.58288764953613,30.3596694946288,32.6516174316408,3245
1,40,1,1,0,0,PERTURBATION,0,ROTATION,0.554872989654541,-90,-104.389305614197,-14.3893056141967,80,119,msl000308,v1,0,0,0,0,3245
1,40,1,1,0,1,PERTURBATION,0,ROTATION,0.439491033554077,-90,-125.074891099226,-35.0748910992259,80,120,msl000308,v1,0.67765998840332,3.10961103439331,-21.0182327270508,31.6507492065431,3314
1,-60,1,1,0,0,PERTURBATION,0,ROTATION,0.486595153808594,-90,-97.6621047455789,-7.6621047455789,80,121,msl000308,v1,0,0,0,0,3314
1,-60,1,1,0,1,PERTURBATION,0,ROTATION,0.514940023422241,-90,-14.9172591006238,75.0827408993762,80,122,msl000308,v1,0.366963386535645,7.29508829116821,0,24.6446716308595,3314
1,0,1,1,0,0,PERTURBATION,0,ROTATION,0.643090963363648,-90,-95.2874680421278,-5.2874680421278,80,123,msl000308,v1,0,0,0,0,3314
1,0,1,1,0,1,PERTURBATION,0,ROTATION,0.462868928909302,-90,-83.0070607208279,6.99293927917213,80,124,msl000308,v1,0.1993727684021,3.22338485717773,8.6741912841797,33.9861083984376,3381
1,-55,1,1,0,0,PERTURBATION,0,ROTATION,0.510514974594116,-90,-95.2941104406528,-5.29411044065276,80,125,msl000308,v1,0,0,0,0,3381
1,-55,1,1,0,1,PERTURBATION,0,ROTATION,0.558154821395874,-90,-93.5577729254576,-3.55777292545763,80,126,msl000308,v1,0.915212392807007,5.85127139091492,49.3761657714841,30.6498809814455,3381
1,15,1,1,0,0,PERTURBATION,0,ROTATION,0.514696836471558,-90,-95.0324232949328,-5.03242329493277,80,127,msl000308,v1,0,0,0,0,3381
1,15,1,1,0,1,PERTURBATION,0,ROTATION,0.518630027770996,-90,-111.425163691998,-21.4251636919979,80,128,msl000308,v1,0.274168252944946,2.18607711791992,-9.00781402587891,36.9887130737306,3445
1,-20,1,1,0,0,PERTURBATION,0,ROTATION,0.457680940628052,-90,-99.3427238985072,-9.34272389850722,80,129,msl000308,v1,0,0,0,0,3445
1,-20,1,1,0,1,PERTURBATION,0,ROTATION,0.534545183181763,-90,-68.4332326363566,21.5667673636434,80,130,msl000308,v1,0.276410102844238,3.20443105697632,18.0156280517578,34.6533538818361,3511
1,45,1,1,0,0,PERTURBATION,0,ROTATION,0.46239709854126,-90,-97.62843746645,-7.62843746644998,80,131,msl000308,v1,0,0,0,0,3511
